GX,GY,GZ,AX,AY,AZ
-0.142031,0.008615,-0.164185,0.063923,-0.023515,0.998375
-0.142031,0.008615,-0.164185,0.064655,-0.023271,0.998131
-0.142031,0.008615,-0.164185,0.063923,-0.023515,0.996911
-0.142031,0.008615,-0.164185,0.063679,-0.023515,0.996178
-0.142031,-0.022154,-0.164185,0.063435,-0.024003,0.996178
-0.111262,-0.022154,-0.194954,0.063191,-0.024247,0.996666
-0.111262,-0.052923,-0.164185,0.063923,-0.024736,0.996911
-0.111262,-0.052923,-0.164185,0.063435,-0.025224,0.997399
-0.111262,-0.052923,-0.164185,0.062946,-0.02498,0.997887
-0.111262,-0.022154,-0.164185,0.063191,-0.02498,0.997643
-0.080492,-0.022154,-0.164185,0.063679,-0.02498,0.997643
-0.080492,-0.022154,-0.194954,0.063923,-0.02498,0.998131
-0.080492,-0.052923,-0.194954,0.064167,-0.025224,0.999108
-0.049723,-0.052923,-0.194954,0.063679,-0.025468,0.999596
-0.049723,-0.022154,-0.194954,0.062702,-0.025224,0.99984
-0.049723,-0.052923,-0.194954,0.062702,-0.024736,0.999352
-0.049723,-0.052923,-0.225723,0.062214,-0.02498,0.999352
-0.049723,-0.052923,-0.225723,0.062214,-0.024736,0.998864
-0.080492,-0.052923,-0.225723,0.062458,-0.024491,0.999352
-0.080492,-0.052923,-0.194954,0.063191,-0.024247,1.000573
-0.080492,-0.022154,-0.194954,0.063679,-0.023759,1.001061
-0.111262,-0.022154,-0.194954,0.064167,-0.023759,1.000817
-0.111262,-0.022154,-0.164185,0.063679,-0.023759,1.000817
-0.142031,-0.052923,-0.164185,0.063679,-0.024003,1.000817
-0.142031,-0.052923,-0.164185,0.064411,-0.023759,1.000573
-0.111262,-0.052923,-0.194954,0.064411,-0.023759,1.000084
-0.111262,-0.052923,-0.164185,0.064167,-0.023759,0.99984
-0.142031,-0.052923,-0.164185,0.064655,-0.024003,0.99984
-0.1728,-0.052923,-0.194954,0.065144,-0.024491,0.999352
-0.1728,-0.052923,-0.194954,0.0649,-0.024491,0.998864
-0.1728,-0.052923,-0.194954,0.064411,-0.024491,0.999108
-0.142031,-0.022154,-0.194954,0.063923,-0.024736,0.998864
-0.142031,-0.022154,-0.194954,0.063191,-0.025468,0.998864
-0.142031,0.008615,-0.194954,0.062214,-0.025224,0.998131
-0.142031,0.008615,-0.194954,0.06197,-0.024736,0.999108
-0.142031,0.008615,-0.194954,0.062458,-0.02498,0.999108
-0.111262,0.039385,-0.194954,0.062702,-0.024736,1.000084
-0.111262,0.008615,-0.194954,0.063191,-0.024736,1.000573
-0.080492,0.008615,-0.194954,0.063679,-0.02498,1.000817
-0.111262,0.039385,-0.194954,0.063679,-0.02498,1.000573
-0.080492,0.039385,-0.194954,0.063435,-0.024736,1.000329
-0.111262,0.008615,-0.164185,0.063435,-0.025224,1.000084
-0.111262,0.008615,-0.164185,0.063191,-0.025224,0.999596
-0.111262,0.008615,-0.164185,0.062702,-0.024736,0.998864
-0.080492,-0.022154,-0.164185,0.063191,-0.02498,0.998864
-0.111262,-0.022154,-0.164185,0.063191,-0.024736,0.999352
-0.111262,-0.052923,-0.164185,0.062946,-0.024491,0.999596
-0.111262,-0.052923,-0.194954,0.062702,-0.024003,0.99984
-0.111262,-0.052923,-0.164185,0.062458,-0.024247,0.99984
-0.111262,-0.083692,-0.164185,0.061726,-0.024736,0.99984
-0.080492,-0.052923,-0.164185,0.061726,-0.024491,0.998375
-0.080492,-0.052923,-0.194954,0.062214,-0.024736,0.997643
-0.080492,-0.052923,-0.164185,0.062458,-0.024491,0.997155
-0.080492,-0.052923,-0.164185,0.062702,-0.024247,0.997155
-0.049723,-0.052923,-0.164185,0.062702,-0.024491,0.997399
-0.049723,-0.022154,-0.164185,0.062458,-0.024736,0.997399
-0.080492,-0.022154,-0.164185,0.062702,-0.024491,0.997887
-0.080492,-0.022154,-0.164185,0.062702,-0.024736,0.99862
-0.111262,-0.022154,-0.133415,0.062702,-0.02498,0.998864
-0.080492,-0.022154,-0.164185,0.062458,-0.025224,0.999596
-0.080492,-0.022154,-0.164185,0.062946,-0.025468,1.000573
-0.111262,-0.022154,-0.164185,0.063435,-0.025468,1.000329
-0.080492,-0.052923,-0.164185,0.063191,-0.025468,1.000573
-0.049723,-0.052923,-0.164185,0.063191,-0.025224,1.000817
-0.018954,-0.052923,-0.164185,0.062702,-0.025468,1.000817
-0.049723,-0.052923,-0.164185,0.062702,-0.02498,0.99984
-0.049723,-0.022154,-0.164185,0.062946,-0.024247,0.999108
-0.049723,-0.022154,-0.164185,0.062946,-0.024247,0.998375
-0.049723,-0.022154,-0.194954,0.063679,-0.024247,0.997643
-0.080492,-0.022154,-0.194954,0.063679,-0.024736,0.997643
-0.080492,-0.022154,-0.194954,0.063435,-0.02498,0.997399
-0.111262,0.008615,-0.194954,0.063679,-0.02498,0.997399
-0.111262,0.008615,-0.194954,0.063679,-0.024736,0.997399
-0.111262,0.008615,-0.194954,0.063679,-0.02498,0.997887
-0.111262,-0.022154,-0.194954,0.063923,-0.02498,0.99862
-0.142031,-0.022154,-0.194954,0.064411,-0.025468,0.99862
-0.142031,0.008615,-0.164185,0.064411,-0.025956,0.99862
-0.111262,0.008615,-0.194954,0.064655,-0.025956,0.99862
-0.111262,0.008615,-0.194954,0.064167,-0.025712,0.998131
-0.142031,0.008615,-0.194954,0.064167,-0.025224,0.99862
-0.142031,0.008615,-0.194954,0.063923,-0.025468,0.998375
-0.1728,0.008615,-0.194954,0.063679,-0.025956,0.998131
-0.1728,0.008615,-0.194954,0.064167,-0.025712,0.998131
-0.1728,0.008615,-0.194954,0.063923,-0.025712,0.998864
-0.1728,-0.022154,-0.194954,0.063923,-0.025468,0.998864
-0.1728,-0.022154,-0.194954,0.063923,-0.025468,0.998864
-0.142031,-0.022154,-0.194954,0.063679,-0.025712,0.999108
-0.142031,-0.022154,-0.164185,0.063679,-0.025224,0.999596
-0.111262,-0.022154,-0.164185,0.063435,-0.02498,0.99984
-0.111262,-0.022154,-0.164185,0.063679,-0.024736,1.000329
-0.111262,-0.022154,-0.194954,0.063679,-0.024736,1.000573
-0.142031,-0.022154,-0.194954,0.063923,-0.024491,1.000573
-0.142031,-0.052923,-0.164185,0.064167,-0.02498,1.000329
-0.142031,-0.022154,-0.164185,0.064167,-0.025224,1.000329
-0.111262,-0.022154,-0.194954,0.064167,-0.024736,1.000329
-0.111262,-0.052923,-0.194954,0.063679,-0.024736,0.99984
-0.080492,-0.052923,-0.194954,0.063435,-0.024736,1.000084
-0.111262,-0.083692,-0.194954,0.062946,-0.024736,1.000329
-0.111262,-0.052923,-0.194954,0.063435,-0.024736,0.999596
-0.111262,-0.052923,-0.194954,0.064167,-0.024491,0.99862
-0.111262,-0.052923,-0.194954,0.064411,-0.024736,0.998864
-0.142031,-0.052923,-0.194954,0.063923,-0.024736,0.99862
-0.111262,-0.022154,-0.194954,0.063923,-0.024736,0.99862
-0.111262,-0.022154,-0.194954,0.063679,-0.024491,0.998131
-0.111262,-0.022154,-0.194954,0.063679,-0.024491,0.997887
-0.111262,-0.022154,-0.194954,0.063679,-0.024247,0.997887
-0.142031,-0.052923,-0.194954,0.063923,-0.024247,0.997643
-0.111262,-0.052923,-0.194954,0.063679,-0.024491,0.997643
-0.080492,-0.052923,-0.194954,0.063435,-0.025224,0.996911
-0.080492,-0.052923,-0.194954,0.063435,-0.025224,0.996666
-0.049723,-0.052923,-0.194954,0.063435,-0.025712,0.996911
-0.049723,-0.022154,-0.194954,0.063191,-0.025712,0.997155
-0.080492,-0.022154,-0.194954,0.063191,-0.025712,0.997399
-0.080492,-0.022154,-0.225723,0.063191,-0.025468,0.997643
-0.049723,-0.022154,-0.225723,0.062702,-0.025224,0.997887
-0.049723,-0.022154,-0.225723,0.062946,-0.02498,0.997887
-0.080492,-0.022154,-0.194954,0.063191,-0.024736,0.998375
-0.080492,-0.022154,-0.194954,0.063923,-0.024736,0.998375
-0.049723,-0.022154,-0.194954,0.063923,-0.024736,0.99862
-0.080492,-0.022154,-0.194954,0.064411,-0.025224,0.99862
-0.080492,-0.022154,-0.225723,0.063923,-0.025468,0.99862
-0.111262,-0.022154,-0.225723,0.063923,-0.025712,0.998864
-0.111262,-0.052923,-0.194954,0.063923,-0.025712,0.998864
-0.111262,-0.052923,-0.194954,0.063923,-0.025956,0.998375
-0.142031,-0.083692,-0.194954,0.063679,-0.025468,0.998131
-0.111262,-0.052923,-0.194954,0.063435,-0.025468,0.998375
-0.142031,-0.083692,-0.164185,0.063923,-0.025224,0.998131
-0.142031,-0.083692,-0.164185,0.064655,-0.025224,0.999352
-0.142031,-0.083692,-0.164185,0.065144,-0.025712,1.000084
-0.142031,-0.052923,-0.164185,0.065144,-0.025224,1.000084
-0.111262,-0.052923,-0.164185,0.065144,-0.025224,0.99984
-0.111262,-0.052923,-0.164185,0.065144,-0.024736,0.999596
-0.111262,-0.052923,-0.164185,0.064655,-0.024736,0.999352
-0.080492,-0.052923,-0.164185,0.064411,-0.024491,0.998375
-0.080492,-0.052923,-0.164185,0.064411,-0.024736,0.998375
-0.049723,-0.022154,-0.164185,0.0649,-0.024736,0.998375
-0.080492,0.008615,-0.133415,0.0649,-0.02498,0.999108
-0.080492,0.039385,-0.164185,0.064655,-0.02498,0.999108
-0.080492,0.039385,-0.164185,0.064655,-0.02498,0.999352
-0.111262,0.039385,-0.164185,0.064411,-0.02498,0.99984
-0.111262,0.039385,-0.164185,0.064167,-0.024736,0.99984
-0.111262,0.039385,-0.164185,0.064411,-0.024736,1.000084
-0.111262,0.039385,-0.164185,0.064655,-0.024736,1.000573
-0.111262,0.039385,-0.164185,0.065144,-0.024491,1.001549
-0.142031,0.008615,-0.194954,0.065388,-0.024491,1.001549
-0.142031,0.008615,-0.194954,0.064411,-0.024736,1.002038
-0.111262,-0.022154,-0.194954,0.063679,-0.02498,1.001061
-0.142031,-0.022154,-0.194954,0.063435,-0.024736,1.000817
-0.111262,-0.052923,-0.194954,0.063435,-0.024491,1.000329
-0.111262,-0.052923,-0.194954,0.062702,-0.024736,1.001061
-0.111262,-0.022154,-0.194954,0.062458,-0.025468,1.001061
-0.111262,-0.022154,-0.225723,0.062458,-0.025468,1.000817
-0.111262,-0.022154,-0.225723,0.062458,-0.02498,1.000329
-0.111262,-0.022154,-0.225723,0.063435,-0.02498,1.000329
-0.111262,-0.022154,-0.225723,0.063679,-0.025712,1.000084
-0.111262,-0.022154,-0.194954,0.063923,-0.025712,0.998864
-0.080492,-0.022154,-0.194954,0.064167,-0.025956,0.998864
-0.080492,0.008615,-0.194954,0.063435,-0.0262,0.99862
-0.080492,0.008615,-0.194954,0.063435,-0.025956,0.999596
-0.049723,-0.022154,-0.194954,0.063191,-0.025468,1.000573
-0.080492,-0.022154,-0.194954,0.062702,-0.025224,1.000573
-0.049723,-0.022154,-0.194954,0.063191,-0.02498,1.000573
-0.049723,-0.022154,-0.194954,0.063191,-0.024736,1.000329
-0.049723,-0.022154,-0.164185,0.062702,-0.024491,1.001061
-0.049723,-0.022154,-0.164185,0.062214,-0.024491,1.001061
-0.049723,-0.022154,-0.164185,0.061482,-0.024736,1.001549
-0.049723,-0.022154,-0.164185,0.061237,-0.024736,1.000817
-0.049723,-0.022154,-0.194954,0.060749,-0.024491,0.99984
-0.080492,-0.022154,-0.164185,0.060993,-0.024247,0.999352
-0.080492,-0.022154,-0.164185,0.061726,-0.024247,0.99862
-0.111262,-0.022154,-0.164185,0.061482,-0.024491,0.998131
-0.111262,-0.052923,-0.164185,0.061482,-0.024491,0.997399
-0.111262,-0.052923,-0.164185,0.061237,-0.02498,0.997643
-0.142031,-0.022154,-0.164185,0.061482,-0.024491,0.99862
-0.142031,-0.022154,-0.164185,0.06197,-0.024491,0.998131
-0.142031,-0.022154,-0.133415,0.062214,-0.024247,0.998375
-0.1728,-0.022154,-0.164185,0.062946,-0.024247,0.99862
-0.1728,0.008615,-0.164185,0.063435,-0.024003,0.998131
-0.1728,0.039385,-0.164185,0.063191,-0.024003,0.997643
-0.203569,0.008615,-0.133415,0.063679,-0.024736,0.997643
-0.1728,0.008615,-0.133415,0.063435,-0.02498,0.996911
-0.142031,0.008615,-0.164185,0.062946,-0.025224,0.996178
-0.1728,0.008615,-0.164185,0.062214,-0.025712,0.996422
-0.142031,0.039385,-0.164185,0.06197,-0.025956,0.997399
-0.111262,0.039385,-0.164185,0.062946,-0.026689,0.998375
-0.142031,0.039385,-0.164185,0.063191,-0.026933,0.998375
-0.142031,0.039385,-0.164185,0.063435,-0.026689,0.998375
-0.142031,0.039385,-0.164185,0.063679,-0.026933,0.99984
-0.142031,0.039385,-0.164185,0.063679,-0.026445,1.000817
-0.142031,0.039385,-0.164185,0.063191,-0.026445,1.001305
-0.111262,0.039385,-0.164185,0.062702,-0.026445,1.001549
-0.080492,0.008615,-0.133415,0.062702,-0.0262,1.001793
-0.080492,-0.022154,-0.133415,0.062214,-0.025956,1.001793
-0.049723,-0.052923,-0.164185,0.06197,-0.025712,1.002526
-0.049723,-0.052923,-0.164185,0.062214,-0.025712,1.001549
-0.049723,-0.052923,-0.164185,0.061726,-0.025224,1.000573
-0.049723,-0.052923,-0.164185,0.06197,-0.024736,0.999352
-0.049723,-0.052923,-0.133415,0.062214,-0.024736,0.998864
-0.080492,-0.052923,-0.133415,0.062458,-0.024736,0.99862
-0.080492,-0.052923,-0.133415,0.062702,-0.024491,0.998864
-0.111262,-0.083692,-0.133415,0.063191,-0.023759,0.999352
-0.142031,-0.083692,-0.102646,0.063679,-0.023759,0.999352
-0.142031,-0.083692,-0.102646,0.063679,-0.023515,0.999596
-0.142031,-0.052923,-0.133415,0.063923,-0.023515,1.000329
-0.142031,-0.052923,-0.133415,0.064411,-0.023515,1.000573
-0.142031,-0.052923,-0.133415,0.064167,-0.023027,1.000573
-0.142031,-0.052923,-0.133415,0.063923,-0.022782,1.000329
-0.142031,-0.052923,-0.133415,0.063435,-0.023271,1.000084
-0.142031,-0.052923,-0.133415,0.062946,-0.023515,0.999596
-0.142031,-0.052923,-0.164185,0.062702,-0.023515,0.999108
-0.1728,-0.022154,-0.164185,0.062702,-0.023515,0.998864
-0.1728,0.008615,-0.164185,0.062214,-0.023759,0.999352
-0.142031,0.008615,-0.164185,0.061726,-0.023271,0.999108
-0.142031,0.039385,-0.164185,0.06197,-0.022782,0.999108
-0.142031,0.039385,-0.164185,0.06197,-0.022538,0.999108
-0.1728,0.008615,-0.133415,0.061726,-0.021806,0.999108
-0.1728,0.008615,-0.133415,0.060993,-0.02205,0.99862
-0.203569,0.008615,-0.133415,0.060993,-0.022294,0.999108
-0.234338,0.008615,-0.133415,0.061482,-0.022782,0.999596
-0.203569,0.039385,-0.133415,0.061726,-0.023271,1.000084
-0.203569,0.070154,-0.133415,0.06197,-0.024003,1.000084
-0.234338,0.039385,-0.133415,0.062214,-0.023515,1.000084
-0.234338,0.039385,-0.133415,0.062458,-0.023759,1.000329
-0.265108,0.008615,-0.133415,0.063435,-0.023759,1.000329
-0.295877,0.008615,-0.133415,0.063679,-0.023515,1.000329
-0.295877,-0.022154,-0.133415,0.063435,-0.023271,1.000329
-0.295877,-0.022154,-0.164185,0.063435,-0.023271,0.999596
-0.295877,-0.022154,-0.164185,0.062946,-0.024247,0.998864
-0.295877,-0.052923,-0.164185,0.062702,-0.024003,0.998375
-0.265108,-0.052923,-0.194954,0.062214,-0.023759,0.997887
-0.265108,-0.052923,-0.194954,0.062214,-0.023515,0.997643
-0.295877,-0.083692,-0.194954,0.062458,-0.023759,0.997643
-0.295877,-0.114462,-0.194954,0.063191,-0.023759,0.997155
-0.295877,-0.114462,-0.194954,0.063435,-0.023759,0.996422
-0.295877,-0.114462,-0.194954,0.063923,-0.024491,0.995934
-0.265108,-0.083692,-0.194954,0.063679,-0.025224,0.996422
-0.234338,-0.083692,-0.194954,0.063923,-0.025224,0.996178
-0.234338,-0.114462,-0.164185,0.063923,-0.025224,0.996422
-0.203569,-0.114462,-0.194954,0.064167,-0.02498,0.995446
-0.203569,-0.114462,-0.194954,0.0649,-0.02498,0.995446
-0.1728,-0.083692,-0.164185,0.065144,-0.02498,0.995202
-0.142031,-0.052923,-0.164185,0.065144,-0.02498,0.994957
-0.142031,-0.022154,-0.133415,0.065144,-0.024736,0.994713
-0.142031,0.008615,-0.133415,0.0649,-0.024736,0.995202
-0.142031,0.039385,-0.133415,0.064655,-0.025224,0.995934
-0.142031,0.039385,-0.133415,0.064167,-0.025956,0.997399
-0.142031,0.070154,-0.102646,0.064167,-0.026445,0.997887
-0.111262,0.070154,-0.133415,0.063923,-0.026445,0.997399
-0.111262,0.100923,-0.133415,0.063191,-0.026689,0.997155
-0.111262,0.100923,-0.133415,0.063191,-0.026445,0.997399
-0.111262,0.131692,-0.133415,0.062458,-0.026689,0.997399
-0.142031,0.131692,-0.102646,0.062214,-0.025956,0.997155
-0.142031,0.131692,-0.102646,0.062214,-0.025468,0.997399
-0.203569,0.131692,-0.102646,0.062214,-0.025712,0.997643
-0.234338,0.131692,-0.102646,0.06197,-0.025712,0.997643
-0.234338,0.131692,-0.102646,0.062214,-0.025956,0.997887
-0.265108,0.131692,-0.102646,0.062702,-0.0262,0.997399
-0.265108,0.131692,-0.133415,0.063435,-0.026445,0.997399
-0.295877,0.131692,-0.133415,0.063679,-0.026689,0.996911
-0.295877,0.131692,-0.133415,0.063923,-0.027177,0.996178
-0.295877,0.100923,-0.164185,0.063923,-0.027421,0.99569
-0.295877,0.100923,-0.164185,0.063435,-0.027421,0.995934
-0.265108,0.070154,-0.164185,0.062946,-0.026933,0.996178
-0.234338,0.070154,-0.164185,0.063435,-0.026933,0.996911
-0.203569,0.039385,-0.194954,0.063679,-0.027177,0.996911
-0.203569,0.039385,-0.194954,0.063435,-0.027421,0.996666
-0.1728,0.008615,-0.194954,0.062702,-0.027665,0.996666
-0.142031,0.008615,-0.194954,0.062458,-0.028154,0.997643
-0.080492,0.008615,-0.194954,0.06197,-0.027909,0.997887
-0.049723,0.008615,-0.194954,0.061726,-0.027909,0.997399
-0.018954,-0.022154,-0.225723,0.062458,-0.027421,0.997887
0.011815,-0.052923,-0.225723,0.062702,-0.026933,0.997887
0.042585,-0.052923,-0.194954,0.062458,-0.026933,0.998375
0.073354,-0.083692,-0.194954,0.062702,-0.026445,0.998375
0.134892,-0.083692,-0.194954,0.062702,-0.026445,0.997887
0.134892,-0.114462,-0.194954,0.062458,-0.025956,0.99862
0.134892,-0.083692,-0.194954,0.062458,-0.025468,0.99862
0.104123,-0.114462,-0.194954,0.062214,-0.025224,0.999108
0.104123,-0.145231,-0.194954,0.062458,-0.025224,0.99862
0.073354,-0.114462,-0.194954,0.062946,-0.02498,0.997155
0.042585,-0.145231,-0.194954,0.063679,-0.024247,0.996911
0.011815,-0.145231,-0.194954,0.063435,-0.023271,0.996422
-0.049723,-0.145231,-0.194954,0.063191,-0.023271,0.996666
-0.049723,-0.114462,-0.164185,0.063435,-0.023759,0.996666
-0.111262,-0.114462,-0.133415,0.063679,-0.023515,0.997155
-0.111262,-0.083692,-0.164185,0.063679,-0.023515,0.997155
-0.1728,-0.083692,-0.164185,0.062946,-0.024247,0.997399
-0.1728,-0.083692,-0.164185,0.063191,-0.024491,0.997643
-0.203569,-0.052923,-0.133415,0.063191,-0.024247,0.997155
-0.203569,-0.052923,-0.133415,0.063435,-0.024003,0.997399
-0.203569,-0.022154,-0.133415,0.063435,-0.024247,0.997887
-0.203569,0.008615,-0.133415,0.063679,-0.024247,0.999108
-0.1728,0.008615,-0.133415,0.063679,-0.024247,0.99984
-0.1728,0.008615,-0.133415,0.064411,-0.024247,1.000084
-0.142031,0.008615,-0.164185,0.065144,-0.024003,0.99984
-0.142031,0.008615,-0.133415,0.064655,-0.024247,1.000329
-0.111262,-0.022154,-0.133415,0.0649,-0.024491,1.000573
-0.080492,-0.022154,-0.133415,0.064411,-0.024491,1.000573
-0.049723,-0.022154,-0.133415,0.064411,-0.024736,1.001061
-0.049723,-0.052923,-0.133415,0.063923,-0.024736,1.000573
-0.049723,-0.052923,-0.133415,0.063191,-0.024736,1.000329
-0.049723,-0.052923,-0.133415,0.063191,-0.024736,1.000084
-0.080492,-0.052923,-0.133415,0.062946,-0.024247,1.000084
-0.080492,-0.052923,-0.133415,0.062946,-0.023759,0.999596
-0.080492,-0.052923,-0.133415,0.062946,-0.023271,0.999352
-0.080492,-0.052923,-0.133415,0.063191,-0.023271,0.998864
-0.080492,-0.083692,-0.133415,0.062946,-0.023271,0.999108
-0.080492,-0.083692,-0.133415,0.063435,-0.023271,0.999108
-0.111262,-0.114462,-0.164185,0.063679,-0.022782,0.998375
-0.142031,-0.114462,-0.164185,0.063679,-0.023271,0.998375
-0.1728,-0.145231,-0.164185,0.063435,-0.023515,0.998131
-0.203569,-0.145231,-0.164185,0.063923,-0.023271,0.998375
-0.203569,-0.145231,-0.194954,0.064167,-0.023271,0.998375
-0.203569,-0.114462,-0.194954,0.064167,-0.023759,0.998864
-0.234338,-0.114462,-0.164185,0.064655,-0.024247,0.999108
-0.234338,-0.083692,-0.164185,0.064655,-0.024736,0.999596
-0.234338,-0.052923,-0.194954,0.065388,-0.02498,1.000084
-0.203569,-0.022154,-0.194954,0.0649,-0.02498,1.000817
-0.203569,-0.022154,-0.194954,0.065144,-0.025468,1.000817
-0.1728,0.008615,-0.164185,0.0649,-0.025956,1.000329
-0.1728,0.039385,-0.194954,0.064655,-0.025956,1.000573
-0.1728,0.070154,-0.194954,0.064411,-0.0262,0.99984
-0.1728,0.100923,-0.164185,0.064167,-0.0262,0.999352
-0.1728,0.131692,-0.164185,0.063923,-0.025712,0.99862
-0.1728,0.131692,-0.194954,0.063679,-0.025468,0.99862
-0.1728,0.162462,-0.164185,0.063435,-0.025224,0.99862
-0.203569,0.193231,-0.164185,0.062702,-0.02498,0.998375
-0.203569,0.162462,-0.164185,0.062946,-0.02498,0.998131
-0.203569,0.193231,-0.133415,0.062946,-0.025224,0.998131
-0.203569,0.162462,-0.133415,0.062946,-0.025224,0.998131
-0.203569,0.162462,-0.133415,0.062458,-0.02498,0.99862
-0.203569,0.131692,-0.133415,0.06197,-0.025224,0.998375
-0.1728,0.131692,-0.133415,0.060993,-0.025956,0.997643
-0.1728,0.131692,-0.133415,0.060505,-0.026689,0.997887
-0.203569,0.100923,-0.133415,0.060261,-0.026689,0.998131
-0.203569,0.070154,-0.133415,0.060505,-0.026689,0.99862
-0.203569,0.070154,-0.133415,0.060505,-0.026933,0.998375
-0.1728,0.070154,-0.133415,0.060261,-0.026689,0.998864
-0.1728,0.008615,-0.164185,0.060261,-0.026689,0.99862
-0.1728,-0.022154,-0.133415,0.060993,-0.026445,0.99862
-0.142031,-0.052923,-0.164185,0.060993,-0.026445,0.999352
-0.111262,-0.083692,-0.164185,0.060505,-0.026689,0.99984
-0.080492,-0.114462,-0.164185,0.060505,-0.026689,0.999352
-0.049723,-0.114462,-0.194954,0.060993,-0.0262,0.999108
-0.018954,-0.114462,-0.194954,0.061726,-0.0262,0.99984
-0.018954,-0.114462,-0.194954,0.061726,-0.025712,0.999596
0.011815,-0.145231,-0.194954,0.061482,-0.025468,0.999352
0.011815,-0.145231,-0.194954,0.06197,-0.025224,0.999352
0.011815,-0.145231,-0.194954,0.062702,-0.02498,0.99862
0.011815,-0.145231,-0.194954,0.063435,-0.024491,0.998131
0.011815,-0.145231,-0.194954,0.063923,-0.023759,0.998375
0.011815,-0.145231,-0.194954,0.064167,-0.023271,0.998131
-0.018954,-0.114462,-0.194954,0.064167,-0.023027,0.998131
-0.018954,-0.114462,-0.164185,0.063923,-0.022782,0.998131
-0.018954,-0.114462,-0.164185,0.063923,-0.023515,0.998131
-0.018954,-0.083692,-0.194954,0.063923,-0.024003,0.997887
-0.049723,-0.083692,-0.194954,0.063923,-0.024003,0.997399
-0.080492,-0.083692,-0.194954,0.063435,-0.023759,0.996911
-0.111262,-0.052923,-0.194954,0.063679,-0.024247,0.996911
-0.142031,-0.022154,-0.194954,0.064167,-0.024491,0.996666
-0.142031,0.008615,-0.194954,0.064167,-0.024736,0.996178
-0.1728,0.039385,-0.194954,0.063435,-0.024736,0.996911
-0.1728,0.070154,-0.164185,0.062946,-0.02498,0.998131
-0.1728,0.070154,-0.164185,0.063191,-0.025224,0.99862
-0.1728,0.070154,-0.164185,0.063435,-0.025224,0.99862
-0.1728,0.100923,-0.164185,0.063679,-0.02498,0.99862
-0.1728,0.100923,-0.194954,0.063435,-0.025224,0.998375
-0.142031,0.100923,-0.194954,0.063679,-0.025468,0.99862
-0.142031,0.100923,-0.164185,0.062946,-0.025224,0.998375
-0.142031,0.070154,-0.164185,0.062702,-0.02498,0.998131
-0.111262,0.070154,-0.164185,0.062702,-0.02498,0.998375
-0.111262,0.070154,-0.164185,0.062214,-0.024736,0.999108
-0.111262,0.070154,-0.164185,0.06197,-0.024736,0.999108
-0.080492,0.039385,-0.164185,0.06197,-0.024491,0.999352
-0.080492,0.008615,-0.164185,0.06197,-0.024247,0.99862
-0.049723,0.008615,-0.164185,0.061726,-0.024003,0.997887
-0.049723,-0.022154,-0.164185,0.06197,-0.024003,0.997155
-0.049723,-0.052923,-0.164185,0.061726,-0.023759,0.997399
-0.018954,-0.083692,-0.164185,0.06197,-0.023515,0.997643
-0.018954,-0.114462,-0.164185,0.062214,-0.023515,0.997643
-0.049723,-0.114462,-0.164185,0.062946,-0.023271,0.997155
-0.049723,-0.114462,-0.164185,0.063435,-0.023271,0.996911
-0.049723,-0.114462,-0.194954,0.062946,-0.023027,0.997155
-0.049723,-0.114462,-0.194954,0.062702,-0.022782,0.996911
-0.080492,-0.114462,-0.194954,0.063435,-0.023271,0.997155
-0.080492,-0.114462,-0.194954,0.064167,-0.023271,0.998131
-0.111262,-0.114462,-0.194954,0.064655,-0.022782,0.997887
-0.111262,-0.114462,-0.194954,0.064655,-0.022782,0.997643
-0.142031,-0.114462,-0.194954,0.064655,-0.022782,0.997887
-0.142031,-0.083692,-0.194954,0.064655,-0.023027,0.99862
-0.142031,-0.083692,-0.194954,0.0649,-0.023271,0.999108
-0.142031,-0.052923,-0.194954,0.065144,-0.023515,0.998864
-0.1728,-0.052923,-0.194954,0.065388,-0.023515,0.998864
-0.203569,-0.022154,-0.194954,0.065388,-0.023027,0.999596
-0.203569,-0.022154,-0.164185,0.065144,-0.022782,1.000084
-0.203569,-0.022154,-0.164185,0.064655,-0.023271,0.999596
-0.203569,0.008615,-0.164185,0.064411,-0.023759,0.998131
-0.203569,0.039385,-0.164185,0.064655,-0.023271,0.997643
-0.203569,0.070154,-0.164185,0.064655,-0.023515,0.997887
-0.203569,0.131692,-0.164185,0.063923,-0.023759,0.997643
-0.234338,0.131692,-0.164185,0.063679,-0.024247,0.997399
-0.234338,0.131692,-0.164185,0.064655,-0.024491,0.997887
-0.265108,0.100923,-0.164185,0.0649,-0.024491,0.998131
-0.265108,0.100923,-0.164185,0.064655,-0.024736,0.997643
-0.265108,0.100923,-0.164185,0.064411,-0.024736,0.997155
-0.265108,0.100923,-0.164185,0.063679,-0.025224,0.997155
-0.265108,0.070154,-0.164185,0.063435,-0.024736,0.997399
-0.265108,0.070154,-0.194954,0.062946,-0.02498,0.997643
-0.234338,0.039385,-0.194954,0.062702,-0.025224,0.997155
-0.234338,0.039385,-0.194954,0.062702,-0.025712,0.996911
-0.234338,-0.022154,-0.194954,0.062702,-0.0262,0.997155
-0.234338,-0.022154,-0.194954,0.062458,-0.025956,0.997643
-0.203569,-0.022154,-0.194954,0.062214,-0.026445,0.997887
-0.142031,-0.052923,-0.194954,0.06197,-0.0262,0.996911
-0.142031,-0.052923,-0.194954,0.062458,-0.0262,0.996178
-0.142031,-0.052923,-0.194954,0.062702,-0.026689,0.99569
-0.111262,-0.083692,-0.194954,0.062458,-0.026933,0.995934
-0.111262,-0.114462,-0.194954,0.06197,-0.026689,0.996911
-0.080492,-0.145231,-0.194954,0.061482,-0.027177,0.997155
-0.049723,-0.145231,-0.194954,0.061482,-0.026933,0.997399
-0.018954,-0.114462,-0.194954,0.062214,-0.026445,0.997155
-0.018954,-0.114462,-0.164185,0.062702,-0.0262,0.997155
0.011815,-0.114462,-0.164185,0.062946,-0.025956,0.997155
0.011815,-0.083692,-0.164185,0.062946,-0.025712,0.996911
0.011815,-0.083692,-0.164185,0.062946,-0.025224,0.996666
-0.018954,-0.052923,-0.164185,0.063679,-0.024736,0.996666
-0.049723,-0.052923,-0.164185,0.063923,-0.024736,0.996911
-0.049723,-0.052923,-0.164185,0.063679,-0.025224,0.996666
-0.018954,-0.022154,-0.164185,0.063923,-0.025712,0.995934
-0.018954,0.008615,-0.164185,0.063435,-0.025712,0.996911
-0.049723,0.039385,-0.164185,0.063191,-0.025712,0.998131
-0.049723,0.039385,-0.164185,0.063191,-0.025956,0.998864
-0.049723,0.070154,-0.194954,0.063435,-0.025956,0.998375
-0.049723,0.070154,-0.194954,0.063191,-0.025712,0.998131
-0.049723,0.070154,-0.194954,0.062946,-0.025956,0.998131
-0.080492,0.070154,-0.194954,0.062946,-0.025468,0.998864
-0.080492,0.100923,-0.194954,0.063191,-0.025224,0.99862
-0.111262,0.100923,-0.194954,0.063679,-0.02498,0.998864
-0.111262,0.070154,-0.194954,0.063679,-0.024491,0.998375
-0.111262,0.070154,-0.194954,0.063435,-0.024491,0.99862
-0.111262,0.070154,-0.225723,0.064167,-0.024247,0.998375
-0.111262,0.039385,-0.225723,0.064655,-0.024003,0.99862
-0.111262,0.039385,-0.194954,0.064655,-0.023759,0.99862
-0.111262,0.008615,-0.194954,0.063923,-0.024003,0.999108
-0.111262,0.008615,-0.225723,0.063923,-0.024003,0.998864
-0.080492,0.008615,-0.225723,0.064167,-0.024003,0.99984
-0.080492,0.008615,-0.194954,0.063679,-0.024003,1.000329
-0.080492,-0.022154,-0.225723,0.062458,-0.023759,0.999108
-0.080492,-0.022154,-0.194954,0.06197,-0.023271,0.999108
-0.080492,-0.022154,-0.194954,0.062214,-0.023027,0.998864
-0.080492,-0.052923,-0.194954,0.06197,-0.023027,0.999108
-0.080492,-0.052923,-0.194954,0.06197,-0.023027,0.999352
-0.049723,-0.083692,-0.194954,0.06197,-0.023271,0.999108
-0.049723,-0.083692,-0.194954,0.061482,-0.023027,0.999352
-0.049723,-0.083692,-0.164185,0.061726,-0.023027,0.999108
-0.049723,-0.083692,-0.194954,0.06197,-0.024003,0.999596
-0.080492,-0.114462,-0.164185,0.062214,-0.024247,0.999108
-0.080492,-0.114462,-0.164185,0.062702,-0.023759,0.998864
-0.080492,-0.114462,-0.133415,0.063191,-0.022782,0.99862
-0.080492,-0.083692,-0.133415,0.063435,-0.022782,0.997643
-0.080492,-0.083692,-0.133415,0.064167,-0.023027,0.997399
-0.111262,-0.083692,-0.133415,0.064655,-0.023271,0.997643
-0.142031,-0.052923,-0.133415,0.064167,-0.023515,0.997643
-0.1728,-0.022154,-0.133415,0.063923,-0.023271,0.997643
-0.1728,-0.022154,-0.133415,0.062946,-0.023027,0.997887
-0.203569,0.008615,-0.133415,0.062946,-0.023027,0.997399
-0.203569,0.008615,-0.133415,0.063435,-0.022782,0.997155
-0.203569,0.039385,-0.164185,0.063191,-0.023271,0.996666
-0.1728,0.070154,-0.164185,0.062702,-0.023759,0.996422
-0.1728,0.070154,-0.164185,0.062458,-0.023759,0.996178
-0.203569,0.070154,-0.164185,0.062214,-0.023515,0.996178
-0.203569,0.070154,-0.164185,0.062458,-0.023759,0.996911
-0.203569,0.070154,-0.164185,0.061726,-0.024003,0.996666
-0.203569,0.070154,-0.164185,0.06197,-0.024003,0.997399
-0.203569,0.070154,-0.164185,0.06197,-0.024247,0.998131
-0.203569,0.070154,-0.164185,0.061482,-0.024736,0.99862
-0.1728,0.070154,-0.164185,0.061237,-0.025468,0.998864
-0.203569,0.070154,-0.164185,0.061237,-0.025712,0.99862
-0.203569,0.070154,-0.164185,0.061482,-0.025468,0.998864
-0.203569,0.039385,-0.164185,0.061726,-0.025468,0.999352
-0.203569,0.008615,-0.164185,0.061726,-0.025956,0.999596
-0.1728,-0.022154,-0.164185,0.061237,-0.025956,0.998864
-0.1728,-0.022154,-0.164185,0.060749,-0.025712,0.997887
-0.142031,-0.052923,-0.164185,0.060505,-0.025224,0.998131
-0.142031,-0.022154,-0.194954,0.060017,-0.025224,0.998375
-0.142031,-0.052923,-0.194954,0.059773,-0.025224,0.997887
-0.142031,-0.052923,-0.194954,0.05904,-0.025712,0.997399
-0.142031,-0.052923,-0.194954,0.058796,-0.025712,0.997155
-0.111262,-0.083692,-0.194954,0.058552,-0.025956,0.997399
-0.111262,-0.083692,-0.194954,0.059529,-0.025956,0.997399
-0.111262,-0.083692,-0.194954,0.060505,-0.025956,0.997399
-0.111262,-0.083692,-0.194954,0.060505,-0.025956,0.997643
-0.111262,-0.083692,-0.225723,0.060505,-0.025712,0.997399
-0.111262,-0.052923,-0.194954,0.060749,-0.025712,0.997643
-0.111262,-0.052923,-0.194954,0.060749,-0.025224,0.997155
-0.080492,-0.052923,-0.194954,0.061237,-0.02498,0.996666
-0.080492,-0.052923,-0.164185,0.06197,-0.025224,0.996911
-0.080492,-0.083692,-0.164185,0.06197,-0.025468,0.997399
-0.080492,-0.052923,-0.164185,0.061726,-0.025712,0.997155
-0.080492,-0.022154,-0.164185,0.061482,-0.025956,0.997399
-0.080492,-0.022154,-0.194954,0.061482,-0.025956,0.998375
-0.080492,-0.022154,-0.194954,0.061482,-0.025956,0.998375
-0.080492,0.008615,-0.194954,0.061726,-0.025712,0.998131
-0.080492,0.039385,-0.194954,0.06197,-0.025712,0.997887
-0.080492,0.039385,-0.164185,0.062214,-0.025468,0.997887
-0.080492,0.039385,-0.164185,0.062214,-0.025468,0.997643
-0.080492,0.070154,-0.164185,0.06197,-0.025468,0.997887
-0.111262,0.100923,-0.194954,0.062458,-0.02498,0.998131
-0.111262,0.131692,-0.194954,0.062214,-0.024736,0.998375
-0.111262,0.131692,-0.164185,0.062214,-0.024736,0.998131
-0.142031,0.100923,-0.194954,0.06197,-0.024491,0.99862
-0.142031,0.100923,-0.194954,0.062458,-0.024491,0.997643
-0.111262,0.039385,-0.194954,0.062214,-0.024491,0.997643
-0.142031,0.039385,-0.164185,0.061726,-0.024736,0.99862
-0.142031,0.039385,-0.164185,0.062214,-0.02498,0.999352
-0.142031,0.008615,-0.164185,0.06197,-0.025224,0.999108
-0.111262,0.008615,-0.164185,0.061726,-0.025224,0.999108
-0.111262,0.008615,-0.164185,0.06197,-0.02498,0.999352
-0.111262,0.008615,-0.164185,0.062458,-0.024736,0.999108
-0.111262,-0.022154,-0.164185,0.062214,-0.024736,0.998864
-0.111262,-0.052923,-0.194954,0.062702,-0.02498,0.999108
-0.111262,-0.052923,-0.194954,0.06197,-0.02498,0.999108
-0.080492,-0.083692,-0.194954,0.061726,-0.02498,0.997887
-0.080492,-0.083692,-0.225723,0.062214,-0.024491,0.997399
-0.080492,-0.083692,-0.225723,0.062214,-0.024491,0.998131
-0.080492,-0.114462,-0.225723,0.062214,-0.024736,0.998375
-0.080492,-0.114462,-0.225723,0.062458,-0.024736,0.998864
-0.049723,-0.114462,-0.194954,0.063191,-0.024003,0.998375
-0.049723,-0.114462,-0.194954,0.063923,-0.024003,0.998864
-0.049723,-0.114462,-0.194954,0.064167,-0.023759,0.999108
-0.018954,-0.114462,-0.194954,0.064411,-0.023515,0.999108
-0.018954,-0.083692,-0.194954,0.064655,-0.023271,0.999108
-0.018954,-0.083692,-0.194954,0.064411,-0.023271,0.99862
-0.018954,-0.114462,-0.194954,0.064655,-0.023271,0.999108
-0.018954,-0.114462,-0.194954,0.065144,-0.023515,0.998375
-0.049723,-0.083692,-0.164185,0.065388,-0.023515,0.997887
-0.080492,-0.083692,-0.194954,0.065388,-0.023515,0.997399
-0.111262,-0.052923,-0.194954,0.065388,-0.023759,0.996422
-0.111262,-0.052923,-0.194954,0.065388,-0.024247,0.996178
-0.111262,-0.022154,-0.194954,0.065632,-0.024491,0.995446
-0.142031,0.008615,-0.194954,0.065388,-0.024491,0.99569
-0.142031,0.039385,-0.194954,0.065632,-0.024491,0.996422
-0.1728,0.039385,-0.194954,0.065388,-0.024491,0.996911
-0.1728,0.070154,-0.194954,0.0649,-0.024491,0.996666
-0.203569,0.070154,-0.164185,0.0649,-0.024247,0.996422
-0.203569,0.100923,-0.164185,0.064655,-0.024491,0.997155
-0.203569,0.131692,-0.133415,0.064167,-0.024736,0.998131
-0.203569,0.162462,-0.164185,0.063435,-0.025468,0.997643
-0.203569,0.131692,-0.164185,0.063191,-0.025712,0.997399
-0.203569,0.100923,-0.164185,0.062702,-0.025712,0.997399
-0.203569,0.070154,-0.164185,0.061726,-0.025956,0.998131
-0.203569,0.039385,-0.164185,0.061726,-0.025956,0.998864
-0.1728,0.008615,-0.164185,0.061726,-0.0262,0.999108
-0.142031,0.008615,-0.164185,0.06197,-0.0262,0.999352
-0.142031,0.008615,-0.133415,0.062458,-0.025956,0.999108
-0.142031,-0.022154,-0.164185,0.062214,-0.026445,0.998864
-0.111262,-0.052923,-0.164185,0.06197,-0.0262,0.999596
-0.111262,-0.052923,-0.164185,0.061726,-0.025956,1.000084
-0.111262,-0.083692,-0.164185,0.062214,-0.0262,1.000084
-0.111262,-0.083692,-0.164185,0.062946,-0.0262,0.999352
-0.142031,-0.114462,-0.164185,0.062946,-0.0262,0.999596
-0.142031,-0.145231,-0.164185,0.06197,-0.0262,1.000329
-0.142031,-0.114462,-0.164185,0.061482,-0.025956,0.999596
-0.111262,-0.145231,-0.164185,0.061482,-0.025468,0.99862
-0.111262,-0.145231,-0.164185,0.06197,-0.02498,0.99862
-0.111262,-0.145231,-0.133415,0.062214,-0.02498,0.998375
-0.111262,-0.114462,-0.133415,0.063191,-0.024736,0.997887
-0.111262,-0.114462,-0.164185,0.062946,-0.024247,0.998131
-0.111262,-0.114462,-0.164185,0.062702,-0.024003,0.997887
-0.111262,-0.083692,-0.133415,0.063435,-0.024003,0.997643
-0.111262,-0.083692,-0.164185,0.064167,-0.024491,0.998131
-0.111262,-0.052923,-0.164185,0.064167,-0.024491,0.998131
-0.142031,-0.052923,-0.164185,0.063679,-0.024491,0.998375
-0.142031,-0.052923,-0.164185,0.063679,-0.024003,0.99862
-0.142031,-0.052923,-0.164185,0.063435,-0.023759,0.998864
-0.142031,-0.052923,-0.164185,0.063435,-0.024003,0.998864
-0.142031,-0.022154,-0.164185,0.063435,-0.024003,0.99862
-0.142031,-0.022154,-0.164185,0.063191,-0.024247,0.99862
-0.142031,0.008615,-0.164185,0.062946,-0.024491,0.999108
-0.111262,0.008615,-0.164185,0.062214,-0.024491,0.999352
-0.111262,0.039385,-0.164185,0.06197,-0.024491,1.000329
-0.111262,0.039385,-0.164185,0.061482,-0.024736,1.000817
-0.142031,0.039385,-0.164185,0.061726,-0.024491,1.001305
-0.142031,0.039385,-0.164185,0.06197,-0.024736,1.000817
-0.142031,0.039385,-0.164185,0.062214,-0.024491,1.000084
-0.111262,0.070154,-0.164185,0.06197,-0.024736,0.99862
-0.142031,0.070154,-0.164185,0.061237,-0.024736,0.998375
-0.111262,0.070154,-0.164185,0.061482,-0.02498,0.998864
-0.142031,0.039385,-0.164185,0.061482,-0.024736,0.999352
-0.1728,0.039385,-0.164185,0.061726,-0.02498,0.998864
-0.1728,0.039385,-0.164185,0.06197,-0.025224,0.998375
-0.1728,0.008615,-0.164185,0.062458,-0.025224,0.997643
-0.1728,0.008615,-0.164185,0.062214,-0.02498,0.997399
-0.142031,0.008615,-0.164185,0.06197,-0.02498,0.997155
-0.142031,0.008615,-0.194954,0.061726,-0.024736,0.997887
-0.142031,-0.022154,-0.194954,0.061482,-0.024491,0.998375
-0.142031,-0.052923,-0.194954,0.061482,-0.024247,0.99862
-0.142031,-0.052923,-0.194954,0.062214,-0.024247,0.99862
-0.142031,-0.083692,-0.194954,0.063191,-0.024491,0.998375
-0.142031,-0.083692,-0.194954,0.063679,-0.024247,0.99862
-0.142031,-0.114462,-0.194954,0.063679,-0.024003,0.998375
-0.111262,-0.114462,-0.194954,0.063435,-0.024491,0.998864
-0.111262,-0.083692,-0.194954,0.063679,-0.025224,0.999596
-0.111262,-0.083692,-0.194954,0.064167,-0.025224,1.000329
-0.142031,-0.083692,-0.194954,0.063923,-0.02498,0.99984
-0.142031,-0.083692,-0.194954,0.063191,-0.024491,0.999596
-0.142031,-0.083692,-0.225723,0.063435,-0.024247,0.999596
-0.1728,-0.083692,-0.194954,0.064411,-0.024736,0.999352
-0.142031,-0.083692,-0.194954,0.064411,-0.025224,0.999108
-0.142031,-0.052923,-0.194954,0.064411,-0.025468,0.999352
-0.142031,-0.022154,-0.194954,0.064411,-0.025468,0.998864
-0.1728,0.008615,-0.194954,0.0649,-0.024491,0.99862
-0.1728,0.008615,-0.194954,0.0649,-0.024736,0.999596
-0.142031,0.039385,-0.164185,0.064411,-0.024736,0.999352
-0.142031,0.070154,-0.164185,0.064655,-0.024491,0.999108
-0.142031,0.070154,-0.164185,0.065388,-0.024003,0.998864
-0.142031,0.070154,-0.164185,0.065388,-0.023515,0.999108
-0.142031,0.100923,-0.164185,0.065144,-0.023515,0.999108
-0.111262,0.070154,-0.164185,0.0649,-0.024247,0.999596
-0.142031,0.070154,-0.164185,0.064655,-0.024491,1.000329
-0.142031,0.070154,-0.133415,0.064411,-0.024491,1.000817
-0.142031,0.070154,-0.164185,0.064167,-0.024247,1.001305
-0.1728,0.070154,-0.164185,0.064411,-0.024247,1.000817
-0.1728,0.070154,-0.164185,0.063923,-0.024491,1.000573
-0.1728,0.039385,-0.164185,0.063191,-0.024491,1.000573
-0.142031,0.039385,-0.164185,0.062214,-0.025224,1.000084
-0.142031,0.008615,-0.164185,0.061482,-0.02498,1.000084
-0.111262,-0.022154,-0.164185,0.060993,-0.024736,0.999352
-0.142031,-0.022154,-0.164185,0.061482,-0.02498,0.999352
-0.142031,-0.022154,-0.164185,0.06197,-0.02498,0.99984
-0.142031,-0.022154,-0.164185,0.062214,-0.025224,1.000084
-0.142031,-0.022154,-0.164185,0.06197,-0.025224,0.99984
-0.142031,-0.022154,-0.164185,0.062214,-0.025224,0.999596
-0.142031,-0.022154,-0.164185,0.062214,-0.025468,0.998864
-0.142031,-0.052923,-0.194954,0.06197,-0.025956,0.999352
-0.111262,-0.052923,-0.194954,0.061726,-0.025956,0.999596
-0.111262,-0.022154,-0.194954,0.061482,-0.0262,0.999596
-0.111262,-0.052923,-0.194954,0.061726,-0.025712,0.998864
-0.111262,-0.052923,-0.194954,0.062458,-0.025956,0.998864
-0.111262,-0.052923,-0.194954,0.062946,-0.0262,0.99862
-0.111262,-0.052923,-0.194954,0.063191,-0.0262,0.998375
-0.111262,-0.022154,-0.194954,0.063191,-0.025712,0.998375
-0.111262,-0.052923,-0.194954,0.062702,-0.025224,0.997643
-0.111262,-0.052923,-0.194954,0.062702,-0.024736,0.997887
-0.111262,-0.083692,-0.194954,0.063435,-0.024491,0.998131
-0.111262,-0.083692,-0.194954,0.062946,-0.024736,0.998375
-0.142031,-0.083692,-0.194954,0.063191,-0.025224,0.997887
-0.111262,-0.052923,-0.194954,0.063191,-0.025712,0.997399
-0.111262,-0.022154,-0.194954,0.063191,-0.025712,0.997155
-0.111262,-0.022154,-0.194954,0.062702,-0.026445,0.996911
-0.111262,-0.022154,-0.164185,0.062946,-0.0262,0.997399
-0.111262,-0.022154,-0.164185,0.062458,-0.0262,0.998375
-0.111262,0.008615,-0.164185,0.062458,-0.026689,0.999108
-0.080492,0.008615,-0.164185,0.062214,-0.026689,0.999108
-0.080492,0.039385,-0.164185,0.062702,-0.025956,0.999108
-0.111262,0.039385,-0.164185,0.063191,-0.0262,0.999596
-0.080492,0.039385,-0.164185,0.063191,-0.025712,0.999352
-0.080492,0.039385,-0.164185,0.063679,-0.025712,0.998864
-0.111262,0.039385,-0.164185,0.063679,-0.025712,0.999352
-0.111262,0.008615,-0.164185,0.063923,-0.025468,0.999596
-0.111262,0.039385,-0.194954,0.063191,-0.025468,1.000084
-0.111262,0.008615,-0.194954,0.063191,-0.025224,0.99984
-0.080492,0.008615,-0.164185,0.063679,-0.025468,0.99984
-0.080492,-0.022154,-0.164185,0.063679,-0.025468,0.999596
-0.080492,-0.022154,-0.194954,0.063679,-0.025224,1.000084
-0.080492,-0.022154,-0.194954,0.063435,-0.025224,1.000084
-0.080492,-0.022154,-0.194954,0.063191,-0.025224,0.99984
-0.080492,-0.052923,-0.194954,0.063679,-0.02498,0.999352
-0.049723,-0.052923,-0.194954,0.063435,-0.024736,0.99984
-0.080492,-0.052923,-0.164185,0.063435,-0.024736,1.000084
-0.111262,-0.052923,-0.194954,0.063923,-0.024736,0.999596
-0.142031,-0.052923,-0.194954,0.0649,-0.024736,1.000084
-0.111262,-0.052923,-0.164185,0.065144,-0.024736,1.000329
-0.111262,-0.052923,-0.194954,0.0649,-0.02498,0.999596
-0.111262,-0.052923,-0.194954,0.064655,-0.02498,0.999352
-0.142031,-0.022154,-0.194954,0.064655,-0.024736,0.999108
-0.142031,-0.052923,-0.194954,0.064411,-0.02498,0.999108
-0.142031,-0.052923,-0.194954,0.0649,-0.024736,0.999108
-0.142031,-0.022154,-0.194954,0.065632,-0.024491,0.998864
-0.142031,-0.022154,-0.194954,0.065388,-0.024247,0.997887
-0.142031,0.008615,-0.194954,0.065632,-0.024247,0.997887
-0.111262,0.039385,-0.164185,0.065388,-0.024491,0.99862
-0.142031,0.039385,-0.194954,0.064411,-0.024736,0.998131
-0.142031,0.070154,-0.164185,0.063679,-0.02498,0.996422
-0.1728,0.070154,-0.194954,0.063435,-0.025224,0.996666
-0.1728,0.070154,-0.194954,0.064167,-0.025712,0.995934
-0.203569,0.100923,-0.194954,0.064655,-0.025468,0.996178
-0.203569,0.131692,-0.194954,0.0649,-0.025712,0.996178
-0.203569,0.131692,-0.194954,0.065144,-0.025712,0.996911
-0.203569,0.100923,-0.164185,0.065144,-0.025712,0.997155
-0.203569,0.100923,-0.164185,0.064167,-0.025468,0.997399
-0.1728,0.100923,-0.164185,0.063923,-0.025224,0.997643
-0.1728,0.100923,-0.164185,0.063679,-0.024736,0.997399
-0.1728,0.070154,-0.164185,0.063923,-0.024491,0.997887
-0.1728,0.039385,-0.164185,0.064167,-0.024003,0.997887
-0.142031,0.039385,-0.164185,0.063923,-0.024491,0.997643
-0.142031,0.039385,-0.164185,0.063191,-0.024491,0.997399
-0.142031,0.008615,-0.164185,0.062702,-0.02498,0.998131
-0.142031,0.008615,-0.164185,0.062458,-0.024736,0.998131
-0.142031,-0.022154,-0.164185,0.062214,-0.024736,0.998375
-0.142031,-0.022154,-0.194954,0.062458,-0.02498,0.997643
-0.142031,-0.052923,-0.194954,0.063191,-0.024736,0.997643
-0.142031,-0.052923,-0.194954,0.063679,-0.024736,0.997399
-0.142031,-0.052923,-0.194954,0.064167,-0.025224,0.997155
-0.142031,-0.052923,-0.194954,0.064411,-0.02498,0.997887
-0.111262,-0.083692,-0.194954,0.0649,-0.02498,0.998375
-0.142031,-0.083692,-0.194954,0.064655,-0.024736,0.99862
-0.142031,-0.083692,-0.164185,0.064655,-0.024247,0.998375
-0.111262,-0.114462,-0.164185,0.0649,-0.024247,0.99862
-0.111262,-0.114462,-0.164185,0.064411,-0.024003,0.99862
-0.111262,-0.114462,-0.164185,0.064167,-0.024003,0.99862
-0.111262,-0.114462,-0.164185,0.063923,-0.024003,0.999108
-0.111262,-0.114462,-0.164185,0.064167,-0.024003,0.998375
-0.111262,-0.114462,-0.164185,0.063435,-0.023759,0.998131
-0.111262,-0.114462,-0.164185,0.063435,-0.023759,0.997887
-0.111262,-0.083692,-0.164185,0.063923,-0.024003,0.997887
-0.142031,-0.052923,-0.133415,0.063679,-0.023759,0.997887
-0.1728,-0.022154,-0.164185,0.062702,-0.024003,0.997887
-0.1728,0.008615,-0.164185,0.062458,-0.024247,0.998375
-0.1728,0.039385,-0.133415,0.062214,-0.024491,0.999108
-0.1728,0.039385,-0.164185,0.062458,-0.024736,1.000329
-0.1728,0.039385,-0.164185,0.063191,-0.02498,1.000817
-0.1728,0.039385,-0.164185,0.063191,-0.025224,1.000329
-0.142031,0.039385,-0.164185,0.063923,-0.025468,1.000329
-0.142031,0.039385,-0.164185,0.064655,-0.025224,1.000817
-0.111262,0.039385,-0.194954,0.064411,-0.025468,1.000084
-0.111262,0.039385,-0.194954,0.064167,-0.025468,0.999108
-0.142031,0.039385,-0.194954,0.063679,-0.025224,0.998864
-0.1728,0.039385,-0.164185,0.063435,-0.024491,0.99862
-0.1728,0.039385,-0.164185,0.063679,-0.024003,0.998375
-0.142031,0.008615,-0.164185,0.063923,-0.024247,0.997887
-0.142031,0.008615,-0.164185,0.063679,-0.024247,0.997399
-0.111262,0.008615,-0.164185,0.063435,-0.024003,0.996911
-0.111262,0.008615,-0.164185,0.063435,-0.024491,0.996911
-0.111262,0.008615,-0.164185,0.062946,-0.024736,0.996666
-0.111262,0.008615,-0.164185,0.062702,-0.025224,0.996178
-0.111262,-0.022154,-0.164185,0.062214,-0.025224,0.995934
-0.111262,-0.022154,-0.164185,0.061726,-0.025468,0.995934
-0.080492,-0.022154,-0.164185,0.062214,-0.025712,0.99569
-0.049723,-0.022154,-0.194954,0.062214,-0.025712,0.996178
-0.049723,-0.052923,-0.194954,0.062458,-0.025224,0.996666
-0.049723,-0.083692,-0.194954,0.062214,-0.02498,0.997155
-0.049723,-0.083692,-0.194954,0.06197,-0.025224,0.997399
-0.049723,-0.083692,-0.194954,0.061726,-0.025468,0.997887
-0.049723,-0.083692,-0.164185,0.061237,-0.025224,0.998131
-0.049723,-0.083692,-0.164185,0.061726,-0.024736,0.997643
-0.049723,-0.083692,-0.164185,0.062458,-0.024247,0.996422
-0.018954,-0.083692,-0.164185,0.062702,-0.024247,0.99569
-0.049723,-0.083692,-0.164185,0.062458,-0.024247,0.994957
-0.049723,-0.052923,-0.164185,0.062946,-0.024247,0.995202
-0.080492,-0.052923,-0.133415,0.063435,-0.024003,0.995934
-0.111262,-0.052923,-0.133415,0.063191,-0.023515,0.995934
-0.142031,-0.022154,-0.133415,0.062946,-0.023027,0.99569
-0.142031,-0.022154,-0.164185,0.062702,-0.022782,0.99569
-0.142031,-0.022154,-0.164185,0.062702,-0.023027,0.996178
-0.1728,-0.022154,-0.164185,0.063679,-0.023027,0.996422
-0.1728,-0.022154,-0.164185,0.063923,-0.022782,0.996666
-0.142031,0.008615,-0.194954,0.064167,-0.022538,0.997399
-0.1728,0.008615,-0.194954,0.064655,-0.022782,0.997887
-0.1728,0.008615,-0.194954,0.063923,-0.023027,0.997643
-0.1728,0.008615,-0.194954,0.063435,-0.023027,0.997399
-0.203569,0.008615,-0.194954,0.063435,-0.023027,0.997887
-0.203569,0.039385,-0.194954,0.064167,-0.023027,0.998375
-0.1728,0.039385,-0.194954,0.064655,-0.023515,0.998375
-0.203569,0.039385,-0.194954,0.064655,-0.023759,0.998375
-0.203569,0.008615,-0.225723,0.064655,-0.024003,0.998864
-0.1728,0.008615,-0.194954,0.064655,-0.024003,0.99862
-0.1728,0.008615,-0.194954,0.064411,-0.024247,0.997887
-0.1728,-0.022154,-0.194954,0.064167,-0.02498,0.998375
-0.1728,-0.022154,-0.194954,0.064411,-0.024491,0.998864
-0.1728,-0.022154,-0.194954,0.064655,-0.024491,0.998864
-0.1728,-0.022154,-0.164185,0.064167,-0.025224,0.999596
-0.142031,-0.022154,-0.164185,0.064655,-0.025468,1.000329
-0.142031,-0.022154,-0.194954,0.064411,-0.025956,1.000329
-0.142031,-0.052923,-0.194954,0.064655,-0.025712,0.99984
-0.1728,-0.052923,-0.164185,0.064167,-0.025956,0.99984
-0.142031,-0.052923,-0.164185,0.064655,-0.025712,0.999596
-0.142031,-0.083692,-0.164185,0.064411,-0.025712,0.999596
-0.111262,-0.083692,-0.164185,0.064655,-0.025712,0.999108
-0.111262,-0.083692,-0.164185,0.065388,-0.025468,0.998864
-0.080492,-0.114462,-0.164185,0.065388,-0.02498,0.998131
-0.049723,-0.114462,-0.194954,0.065632,-0.024736,0.997643
-0.049723,-0.114462,-0.194954,0.065388,-0.024736,0.998131
-0.080492,-0.114462,-0.164185,0.065144,-0.024736,0.998131
-0.049723,-0.083692,-0.133415,0.065144,-0.024736,0.998131
-0.049723,-0.083692,-0.133415,0.0649,-0.025224,0.999352
-0.049723,-0.083692,-0.164185,0.064655,-0.025712,1.000084
-0.018954,-0.083692,-0.133415,0.064411,-0.025956,1.000084
-0.049723,-0.083692,-0.164185,0.064411,-0.0262,1.000084
-0.049723,-0.052923,-0.164185,0.064167,-0.025712,1.000817
-0.049723,-0.022154,-0.164185,0.063679,-0.025712,1.001061
-0.049723,-0.022154,-0.194954,0.063923,-0.025712,1.001549
-0.080492,0.008615,-0.194954,0.063679,-0.025712,1.001305
-0.080492,0.008615,-0.164185,0.063923,-0.025712,1.000817
-0.080492,0.008615,-0.164185,0.063679,-0.025712,1.000817
-0.080492,0.008615,-0.164185,0.063435,-0.025712,0.99984
-0.080492,0.039385,-0.164185,0.063191,-0.025468,0.999352
-0.111262,0.039385,-0.194954,0.062458,-0.025224,0.999108
-0.111262,0.039385,-0.164185,0.062702,-0.02498,0.999596
-0.111262,0.039385,-0.164185,0.062946,-0.025224,0.99984
-0.111262,0.039385,-0.164185,0.062946,-0.025224,1.000084
-0.142031,0.039385,-0.164185,0.062946,-0.02498,0.999352
-0.142031,0.039385,-0.164185,0.063191,-0.025468,0.997887
-0.111262,0.039385,-0.164185,0.063435,-0.025468,0.997399
-0.111262,0.008615,-0.164185,0.062214,-0.026445,0.996911
-0.142031,0.039385,-0.164185,0.062702,-0.026689,0.996911
-0.142031,0.039385,-0.194954,0.063191,-0.026445,0.997155
-0.142031,0.070154,-0.164185,0.062946,-0.0262,0.998131
-0.142031,0.070154,-0.164185,0.062458,-0.025956,0.99862
-0.142031,0.039385,-0.164185,0.062214,-0.025712,0.998375
-0.111262,0.039385,-0.164185,0.062458,-0.025712,0.99862
-0.080492,0.008615,-0.164185,0.062458,-0.025224,0.998375
-0.080492,-0.022154,-0.194954,0.062946,-0.025224,0.998375
-0.080492,-0.022154,-0.194954,0.062946,-0.024736,0.998375
-0.080492,-0.022154,-0.194954,0.062458,-0.024736,0.998864
-0.080492,-0.052923,-0.194954,0.062458,-0.024736,0.999352
-0.080492,-0.052923,-0.164185,0.062702,-0.02498,0.99984
-0.080492,-0.052923,-0.164185,0.063191,-0.025224,0.999596
-0.049723,-0.083692,-0.164185,0.063923,-0.02498,0.999596
-0.049723,-0.083692,-0.133415,0.063435,-0.024491,0.999352
-0.049723,-0.083692,-0.133415,0.062946,-0.024491,0.999108
-0.049723,-0.083692,-0.133415,0.062946,-0.024491,0.998864
-0.080492,-0.114462,-0.133415,0.063191,-0.024491,0.999108
-0.080492,-0.083692,-0.164185,0.063435,-0.024247,0.998864
-0.111262,-0.083692,-0.164185,0.063435,-0.024247,0.998375
-0.111262,-0.052923,-0.133415,0.063923,-0.024247,0.997643
-0.080492,-0.083692,-0.133415,0.064167,-0.024736,0.997643
-0.080492,-0.052923,-0.133415,0.064167,-0.02498,0.997887
-0.080492,-0.052923,-0.133415,0.063923,-0.02498,0.997643
-0.111262,-0.052923,-0.133415,0.063923,-0.024736,0.997643
-0.111262,-0.022154,-0.133415,0.063923,-0.024491,0.997155
-0.111262,-0.022154,-0.133415,0.063435,-0.024491,0.996911
-0.111262,-0.022154,-0.164185,0.063435,-0.024491,0.997155
-0.111262,-0.022154,-0.164185,0.063435,-0.024491,0.997887
-0.111262,-0.022154,-0.164185,0.063923,-0.024736,0.997155
-0.111262,0.008615,-0.133415,0.063679,-0.025468,0.996911
-0.111262,0.039385,-0.133415,0.063679,-0.02498,0.998375
-0.111262,0.008615,-0.133415,0.064411,-0.024491,0.999108
-0.111262,0.008615,-0.133415,0.064411,-0.024003,0.999352
-0.111262,0.039385,-0.133415,0.0649,-0.024003,0.999352
-0.111262,0.039385,-0.133415,0.065388,-0.024247,0.999108
-0.111262,0.039385,-0.133415,0.065144,-0.024247,0.999108
-0.142031,0.008615,-0.133415,0.064655,-0.024247,0.999108
-0.142031,0.008615,-0.164185,0.064655,-0.024003,0.999108
-0.142031,0.008615,-0.164185,0.064655,-0.024003,0.99862
-0.1728,0.008615,-0.164185,0.064655,-0.023759,0.999108
-0.1728,0.008615,-0.164185,0.063923,-0.023759,0.999352
-0.1728,0.008615,-0.164185,0.063679,-0.024247,0.999352
-0.1728,-0.022154,-0.164185,0.063435,-0.025224,0.999352
-0.142031,-0.022154,-0.164185,0.063191,-0.025956,0.999352
-0.142031,0.008615,-0.194954,0.063191,-0.025956,0.99984
-0.142031,0.008615,-0.194954,0.063191,-0.0262,1.000329
-0.142031,0.008615,-0.194954,0.062946,-0.025712,0.99984
-0.142031,-0.022154,-0.225723,0.062458,-0.025956,1.000084
-0.142031,-0.022154,-0.225723,0.062702,-0.025712,0.999596
-0.142031,-0.022154,-0.194954,0.063191,-0.02498,0.999108
-0.111262,-0.022154,-0.194954,0.062946,-0.025224,0.999108
-0.111262,0.008615,-0.194954,0.062702,-0.02498,0.999108
-0.111262,0.008615,-0.194954,0.063191,-0.025224,0.999352
-0.111262,0.008615,-0.194954,0.063435,-0.025468,0.99862
-0.080492,0.008615,-0.194954,0.063191,-0.025468,0.997643
-0.080492,0.008615,-0.194954,0.063435,-0.025468,0.997643
-0.080492,-0.022154,-0.164185,0.063923,-0.025468,0.998131
-0.111262,-0.022154,-0.164185,0.064167,-0.025468,0.997643
-0.111262,-0.022154,-0.164185,0.064411,-0.02498,0.997643
-0.111262,-0.022154,-0.194954,0.064411,-0.025468,0.997155
-0.111262,-0.022154,-0.164185,0.064167,-0.025956,0.997155
-0.142031,-0.022154,-0.164185,0.063923,-0.0262,0.997155
-0.142031,-0.022154,-0.164185,0.064167,-0.025712,0.997155
-0.142031,0.008615,-0.164185,0.064167,-0.025468,0.997643
-0.142031,0.008615,-0.164185,0.063679,-0.025712,0.998131
-0.142031,0.008615,-0.133415,0.063435,-0.025712,0.998131
-0.142031,0.008615,-0.133415,0.063679,-0.025468,0.997643
-0.142031,0.008615,-0.133415,0.063679,-0.025224,0.997155
-0.111262,-0.022154,-0.164185,0.063435,-0.024736,0.997643
-0.111262,-0.022154,-0.164185,0.063191,-0.024247,0.998375
-0.142031,0.008615,-0.164185,0.063435,-0.023515,0.998131
-0.111262,-0.022154,-0.164185,0.063679,-0.024003,0.997887
-0.142031,-0.022154,-0.164185,0.063679,-0.024491,0.997643
-0.142031,-0.022154,-0.164185,0.063923,-0.024736,0.997643
-0.142031,-0.052923,-0.194954,0.064411,-0.024491,0.997643
-0.111262,-0.052923,-0.194954,0.0649,-0.024491,0.997643
-0.111262,-0.052923,-0.194954,0.065144,-0.024247,0.997643
-0.111262,-0.083692,-0.194954,0.065144,-0.024003,0.998375
-0.111262,-0.083692,-0.194954,0.0649,-0.024003,0.99862
-0.142031,-0.114462,-0.194954,0.0649,-0.024003,0.999108
-0.111262,-0.114462,-0.194954,0.0649,-0.024247,0.998864
-0.142031,-0.083692,-0.194954,0.064655,-0.024003,0.997887
-0.142031,-0.083692,-0.194954,0.064411,-0.024247,0.997155
-0.111262,-0.083692,-0.164185,0.063923,-0.024247,0.996178
-0.080492,-0.083692,-0.164185,0.063679,-0.024247,0.996422
-0.080492,-0.083692,-0.164185,0.063679,-0.024003,0.996422
-0.111262,-0.083692,-0.164185,0.063679,-0.024491,0.996422
-0.111262,-0.083692,-0.164185,0.064167,-0.024491,0.996178
-0.142031,-0.052923,-0.164185,0.064411,-0.02498,0.996178
-0.142031,-0.052923,-0.164185,0.064411,-0.02498,0.996178
-0.111262,-0.022154,-0.164185,0.063923,-0.02498,0.996178
-0.111262,-0.022154,-0.194954,0.063435,-0.024736,0.995934
-0.111262,0.008615,-0.164185,0.063435,-0.02498,0.99569
-0.080492,0.008615,-0.164185,0.063923,-0.02498,0.995202
-0.111262,0.008615,-0.164185,0.063679,-0.02498,0.995202
-0.111262,0.008615,-0.164185,0.063679,-0.02498,0.995202
-0.142031,0.008615,-0.164185,0.063679,-0.025468,0.994957
-0.111262,0.008615,-0.164185,0.063923,-0.025224,0.995202
-0.111262,0.008615,-0.164185,0.063191,-0.025224,0.996178
-0.111262,0.008615,-0.194954,0.062458,-0.025468,0.99569
-0.111262,0.008615,-0.194954,0.06197,-0.025224,0.996666
-0.111262,0.008615,-0.194954,0.062214,-0.02498,0.998131
-0.142031,0.008615,-0.194954,0.06197,-0.02498,0.998375
-0.111262,0.008615,-0.194954,0.061726,-0.024491,0.998131
-0.111262,0.008615,-0.194954,0.06197,-0.024491,0.998375
-0.142031,0.008615,-0.194954,0.062214,-0.024491,0.99862
-0.111262,0.039385,-0.194954,0.062702,-0.024736,0.998131
-0.111262,0.039385,-0.194954,0.062458,-0.02498,0.998375
-0.080492,0.039385,-0.194954,0.06197,-0.025224,0.998864
-0.080492,0.039385,-0.225723,0.062214,-0.02498,0.998375
-0.080492,0.008615,-0.225723,0.062214,-0.024736,0.998375
-0.111262,0.008615,-0.225723,0.062946,-0.02498,0.99984
-0.111262,-0.022154,-0.225723,0.062946,-0.025224,1.001061
-0.111262,-0.022154,-0.225723,0.063191,-0.024736,1.001061
-0.111262,0.008615,-0.194954,0.062702,-0.024247,1.001061
-0.080492,-0.022154,-0.225723,0.06197,-0.024003,1.001793
-0.080492,-0.022154,-0.225723,0.06197,-0.023759,1.001061
-0.080492,-0.052923,-0.225723,0.062702,-0.023515,1.000817
-0.080492,-0.052923,-0.225723,0.062946,-0.023271,0.99984
-0.080492,-0.083692,-0.225723,0.063191,-0.023515,0.999108
-0.080492,-0.083692,-0.225723,0.063435,-0.024003,0.999108
-0.080492,-0.083692,-0.225723,0.063679,-0.023759,0.998864
-0.080492,-0.083692,-0.225723,0.063679,-0.024003,0.998375
-0.080492,-0.052923,-0.225723,0.063923,-0.023515,0.99862
-0.080492,-0.083692,-0.194954,0.063923,-0.023271,0.998131
-0.080492,-0.083692,-0.194954,0.064167,-0.023027,0.997887
-0.080492,-0.083692,-0.225723,0.064167,-0.022538,0.997887
-0.111262,-0.083692,-0.225723,0.064655,-0.022538,0.997887
-0.111262,-0.083692,-0.225723,0.065144,-0.022294,0.998375
-0.111262,-0.052923,-0.225723,0.0649,-0.022782,0.997643
-0.111262,-0.052923,-0.194954,0.064655,-0.023271,0.997643
-0.111262,-0.052923,-0.194954,0.064167,-0.023515,0.997399
-0.111262,-0.052923,-0.194954,0.064411,-0.024247,0.997155
-0.111262,-0.083692,-0.194954,0.064411,-0.024736,0.997399
-0.142031,-0.052923,-0.164185,0.064411,-0.024736,0.996911
-0.142031,-0.052923,-0.164185,0.0649,-0.024491,0.997643
-0.142031,-0.052923,-0.164185,0.064655,-0.02498,0.996911
-0.1728,-0.052923,-0.164185,0.0649,-0.025224,0.997643
-0.1728,-0.022154,-0.164185,0.064167,-0.025224,0.997643
-0.1728,-0.022154,-0.164185,0.063923,-0.025224,0.997399
-0.1728,0.008615,-0.164185,0.063923,-0.025468,0.997155
-0.1728,-0.022154,-0.133415,0.063679,-0.025712,0.997399
-0.1728,-0.022154,-0.133415,0.063679,-0.025956,0.997399
-0.142031,-0.022154,-0.164185,0.063435,-0.025712,0.997155
-0.142031,-0.022154,-0.164185,0.063435,-0.025468,0.997155
-0.142031,-0.022154,-0.164185,0.063679,-0.025712,0.997399
-0.111262,0.008615,-0.164185,0.063435,-0.0262,0.998375
-0.111262,0.008615,-0.164185,0.062946,-0.0262,0.998864
-0.080492,0.039385,-0.164185,0.062702,-0.025468,0.999352
-0.080492,0.039385,-0.164185,0.062458,-0.025224,1.000084
-0.080492,0.039385,-0.164185,0.062214,-0.024736,0.99984
-0.111262,0.008615,-0.194954,0.062214,-0.024736,0.99984
-0.111262,0.008615,-0.194954,0.062458,-0.024491,1.000329
-0.111262,0.008615,-0.164185,0.062946,-0.02498,1.001061
-0.080492,0.039385,-0.194954,0.062946,-0.025468,1.000817
-0.080492,0.039385,-0.194954,0.062458,-0.025468,0.99984
-0.080492,0.039385,-0.194954,0.062702,-0.025224,0.99984
-0.111262,0.039385,-0.194954,0.062702,-0.025224,0.99984
-0.111262,0.039385,-0.194954,0.062702,-0.02498,0.999352
-0.142031,0.008615,-0.194954,0.063435,-0.025224,0.998864
-0.142031,0.008615,-0.194954,0.063923,-0.024491,0.997887
-0.142031,0.008615,-0.194954,0.063923,-0.024247,0.997155
-0.111262,-0.022154,-0.194954,0.063923,-0.024491,0.996666
-0.111262,-0.022154,-0.194954,0.063923,-0.024736,0.996666
-0.111262,-0.022154,-0.194954,0.063923,-0.024491,0.996666
-0.142031,-0.022154,-0.194954,0.063435,-0.024736,0.996666
-0.142031,-0.052923,-0.194954,0.062946,-0.02498,0.996422
-0.142031,-0.052923,-0.194954,0.062946,-0.02498,0.996422
-0.142031,-0.052923,-0.194954,0.063435,-0.025468,0.996422
-0.142031,-0.052923,-0.164185,0.063679,-0.025956,0.996911
-0.142031,-0.052923,-0.194954,0.063435,-0.025712,0.996666
-0.111262,-0.052923,-0.194954,0.063435,-0.025712,0.997399
-0.111262,-0.022154,-0.194954,0.063679,-0.025712,0.998375
-0.111262,-0.022154,-0.194954,0.064411,-0.025712,0.998375
-0.142031,-0.022154,-0.194954,0.064655,-0.0262,0.99862
-0.111262,-0.022154,-0.194954,0.065144,-0.026445,0.99862
-0.111262,-0.022154,-0.194954,0.065144,-0.025956,0.998131
-0.111262,-0.022154,-0.194954,0.065388,-0.0262,0.997155
-0.111262,0.008615,-0.194954,0.064655,-0.0262,0.997643
-0.111262,-0.022154,-0.194954,0.063923,-0.0262,0.997643
-0.080492,-0.022154,-0.194954,0.064411,-0.025712,0.998131
-0.080492,-0.022154,-0.194954,0.064655,-0.025224,0.997887
-0.080492,-0.022154,-0.194954,0.065144,-0.025224,0.997643
-0.080492,0.008615,-0.164185,0.064655,-0.025468,0.996911
-0.080492,0.008615,-0.164185,0.064167,-0.025468,0.997155
-0.049723,-0.022154,-0.194954,0.0649,-0.02498,0.997399
-0.049723,-0.022154,-0.194954,0.065388,-0.024491,0.997399
-0.080492,-0.022154,-0.194954,0.065876,-0.024003,0.997887
-0.080492,-0.022154,-0.194954,0.065144,-0.024003,0.997887
-0.080492,0.008615,-0.194954,0.064411,-0.024003,0.998375
-0.080492,-0.022154,-0.164185,0.064167,-0.024247,0.99862
-0.080492,-0.022154,-0.194954,0.064167,-0.024247,0.998375
-0.049723,-0.022154,-0.194954,0.064411,-0.024491,0.997887
-0.049723,0.008615,-0.164185,0.064655,-0.024736,0.997399
-0.080492,0.008615,-0.164185,0.064655,-0.025224,0.997155
-0.080492,0.039385,-0.164185,0.064655,-0.025224,0.997399
-0.111262,0.039385,-0.133415,0.064411,-0.025224,0.997643
-0.111262,0.039385,-0.164185,0.063679,-0.025224,0.998375
-0.111262,0.008615,-0.164185,0.063191,-0.025224,0.998375
-0.142031,0.008615,-0.164185,0.062702,-0.025224,0.998375
-0.142031,0.039385,-0.164185,0.062702,-0.02498,0.997887
-0.142031,0.039385,-0.164185,0.062702,-0.02498,0.998131
-0.1728,0.039385,-0.164185,0.062214,-0.024247,0.999108
-0.1728,0.039385,-0.194954,0.062214,-0.024003,1.000329
-0.1728,0.039385,-0.164185,0.062214,-0.024247,1.000817
-0.203569,0.008615,-0.194954,0.062458,-0.024247,1.001061
-0.234338,0.008615,-0.194954,0.062946,-0.023759,1.001061
-0.203569,0.008615,-0.164185,0.063435,-0.024003,1.001549
-0.1728,0.039385,-0.194954,0.063679,-0.024491,1.001061
-0.1728,0.039385,-0.164185,0.063679,-0.024736,1.000573
-0.203569,0.039385,-0.164185,0.064167,-0.02498,1.000084
-0.203569,0.039385,-0.164185,0.063679,-0.02498,0.99984
-0.1728,0.039385,-0.164185,0.062946,-0.02498,1.000084
-0.1728,0.008615,-0.164185,0.062702,-0.025224,0.999108
-0.1728,0.008615,-0.164185,0.062458,-0.025468,0.998864
-0.1728,0.008615,-0.164185,0.062458,-0.025224,0.999108
-0.142031,0.008615,-0.164185,0.062702,-0.025468,0.999352
-0.1728,0.008615,-0.164185,0.062458,-0.025468,0.999596
-0.142031,0.008615,-0.164185,0.062702,-0.025224,0.999352
-0.142031,0.008615,-0.164185,0.063191,-0.02498,0.999108
-0.142031,0.008615,-0.164185,0.063191,-0.02498,0.999108
-0.142031,-0.022154,-0.164185,0.062458,-0.024491,0.999108
-0.142031,-0.022154,-0.164185,0.062458,-0.024491,0.999352
-0.111262,-0.022154,-0.164185,0.062946,-0.024491,0.998864
-0.111262,-0.022154,-0.164185,0.062946,-0.024736,0.99862
-0.111262,-0.022154,-0.164185,0.062702,-0.02498,0.998864
-0.111262,-0.052923,-0.164185,0.062214,-0.025224,0.99862
-0.111262,-0.052923,-0.194954,0.062214,-0.025468,0.999108
-0.111262,-0.052923,-0.164185,0.062458,-0.02498,0.999108
-0.111262,-0.052923,-0.164185,0.063435,-0.02498,0.999352
-0.111262,-0.083692,-0.164185,0.063923,-0.025224,0.998131
-0.111262,-0.083692,-0.164185,0.063923,-0.025956,0.998131
-0.080492,-0.083692,-0.133415,0.063435,-0.025956,0.997887
-0.080492,-0.052923,-0.164185,0.062946,-0.025224,0.997399
-0.080492,-0.052923,-0.164185,0.063191,-0.025468,0.997155
-0.080492,-0.052923,-0.164185,0.063435,-0.025224,0.996911
-0.049723,-0.052923,-0.194954,0.063435,-0.025224,0.996666
-0.080492,-0.022154,-0.194954,0.062946,-0.025224,0.996666
-0.111262,-0.052923,-0.194954,0.063191,-0.025712,0.996666
-0.111262,-0.022154,-0.164185,0.062946,-0.025956,0.996666
-0.111262,-0.022154,-0.164185,0.062946,-0.025956,0.996911
-0.111262,-0.022154,-0.164185,0.062458,-0.02498,0.997643
-0.111262,-0.022154,-0.164185,0.062214,-0.025468,0.996911
-0.111262,-0.022154,-0.164185,0.062702,-0.025712,0.996422
-0.111262,-0.022154,-0.164185,0.062946,-0.025712,0.996911
-0.111262,-0.022154,-0.164185,0.062702,-0.025224,0.997643
-0.111262,-0.022154,-0.164185,0.062214,-0.024736,0.997643
-0.111262,-0.022154,-0.194954,0.061726,-0.025224,0.997399
-0.111262,0.008615,-0.194954,0.061482,-0.025468,0.997155
-0.142031,0.008615,-0.164185,0.060993,-0.025712,0.997643
-0.142031,-0.022154,-0.164185,0.061237,-0.025712,0.997399
-0.142031,-0.022154,-0.164185,0.061482,-0.025712,0.997399
-0.142031,-0.022154,-0.194954,0.061237,-0.025956,0.997399
-0.142031,-0.022154,-0.194954,0.060993,-0.025956,0.997155
-0.142031,-0.022154,-0.164185,0.061482,-0.025712,0.997155
-0.142031,-0.022154,-0.194954,0.061482,-0.025712,0.996911
-0.142031,-0.022154,-0.164185,0.061482,-0.025468,0.996911
-0.1728,-0.022154,-0.164185,0.061726,-0.025224,0.995934
-0.1728,-0.022154,-0.164185,0.061726,-0.025468,0.996178
-0.142031,-0.052923,-0.164185,0.062214,-0.025468,0.996422
-0.1728,-0.083692,-0.164185,0.062458,-0.025956,0.996422
-0.142031,-0.083692,-0.164185,0.062214,-0.025712,0.996422
-0.111262,-0.083692,-0.164185,0.062214,-0.025956,0.995934
-0.142031,-0.083692,-0.194954,0.062702,-0.025956,0.996666
-0.111262,-0.083692,-0.194954,0.062946,-0.025956,0.996422
-0.111262,-0.083692,-0.194954,0.062458,-0.025956,0.996422
-0.080492,-0.083692,-0.194954,0.06197,-0.025224,0.997887
-0.080492,-0.083692,-0.164185,0.061726,-0.025712,0.997643
-0.080492,-0.083692,-0.164185,0.061237,-0.025712,0.997399
-0.111262,-0.083692,-0.164185,0.061726,-0.025712,0.997887
-0.080492,-0.052923,-0.164185,0.061237,-0.025468,0.997887
-0.080492,-0.052923,-0.164185,0.061482,-0.02498,0.998131
-0.080492,-0.052923,-0.164185,0.06197,-0.024491,0.998375
-0.080492,-0.052923,-0.164185,0.062946,-0.024003,0.998864
-0.080492,-0.052923,-0.164185,0.062946,-0.024003,0.99862
-0.080492,-0.052923,-0.164185,0.062946,-0.024491,0.998864
-0.080492,-0.022154,-0.164185,0.063435,-0.024491,0.999596
-0.080492,-0.022154,-0.164185,0.063679,-0.024736,0.99984
-0.080492,-0.022154,-0.164185,0.064167,-0.024736,0.999352
-0.080492,-0.022154,-0.164185,0.064167,-0.024736,0.99862
-0.111262,-0.022154,-0.164185,0.063923,-0.024491,0.99862
-0.111262,0.008615,-0.164185,0.063679,-0.024247,0.99862
-0.142031,-0.022154,-0.164185,0.063923,-0.024247,0.998864
-0.142031,-0.022154,-0.133415,0.063679,-0.024003,0.998864
-0.142031,-0.022154,-0.133415,0.063191,-0.024003,0.99862
-0.1728,-0.022154,-0.164185,0.062458,-0.024491,0.997887
-0.1728,-0.022154,-0.194954,0.062458,-0.024736,0.996911
-0.1728,-0.022154,-0.194954,0.062214,-0.025224,0.997155
-0.203569,-0.022154,-0.164185,0.062458,-0.025468,0.997887
-0.203569,-0.022154,-0.164185,0.062458,-0.025712,0.997643
-0.1728,-0.022154,-0.164185,0.062946,-0.025712,0.997643
-0.1728,-0.022154,-0.164185,0.063679,-0.025468,0.998131
-0.1728,-0.022154,-0.164185,0.063679,-0.025712,0.999108
-0.1728,-0.022154,-0.164185,0.063435,-0.025956,0.999352
-0.1728,-0.022154,-0.164185,0.063191,-0.025712,0.999108
-0.1728,-0.022154,-0.164185,0.063923,-0.025468,0.999596
-0.1728,-0.022154,-0.164185,0.063923,-0.025224,1.000084
-0.1728,0.008615,-0.164185,0.063923,-0.02498,1.000084
-0.1728,0.008615,-0.164185,0.062946,-0.024736,0.99984
-0.1728,-0.022154,-0.133415,0.063191,-0.024491,0.999352
-0.1728,-0.022154,-0.133415,0.063191,-0.024736,0.998131
-0.1728,-0.022154,-0.133415,0.063191,-0.024491,0.99862
-0.1728,-0.022154,-0.164185,0.063679,-0.024736,0.997887
-0.1728,-0.022154,-0.164185,0.063923,-0.024736,0.998375
-0.142031,-0.022154,-0.164185,0.063435,-0.024491,0.998864
-0.142031,-0.022154,-0.194954,0.063191,-0.024491,0.999352
-0.1728,-0.022154,-0.194954,0.063191,-0.024247,0.998375
-0.1728,0.008615,-0.164185,0.063191,-0.024491,0.997887
-0.1728,0.008615,-0.194954,0.063191,-0.02498,0.997399
-0.1728,0.008615,-0.194954,0.063191,-0.02498,0.997399
-0.1728,0.008615,-0.194954,0.063435,-0.025224,0.997399
-0.1728,0.008615,-0.194954,0.063923,-0.02498,0.996911
-0.142031,0.008615,-0.164185,0.064167,-0.024736,0.996422
-0.142031,0.008615,-0.164185,0.063191,-0.02498,0.996666
-0.1728,0.008615,-0.164185,0.063435,-0.025468,0.996178
-0.1728,-0.022154,-0.164185,0.063679,-0.025712,0.995934
-0.142031,-0.022154,-0.164185,0.063435,-0.025956,0.996422
-0.142031,-0.022154,-0.164185,0.062458,-0.025712,0.997155
-0.111262,0.008615,-0.164185,0.062214,-0.025712,0.997155
-0.111262,0.008615,-0.194954,0.062702,-0.025956,0.997399
-0.111262,-0.022154,-0.194954,0.062458,-0.025468,0.997887
-0.111262,-0.022154,-0.194954,0.062946,-0.025224,0.999352
-0.111262,-0.022154,-0.164185,0.062702,-0.025224,0.99984
-0.111262,-0.052923,-0.194954,0.063679,-0.024736,0.999108
-0.111262,-0.052923,-0.194954,0.064411,-0.024491,0.999108
-0.142031,-0.022154,-0.194954,0.063923,-0.024003,0.99862
-0.142031,-0.052923,-0.194954,0.063679,-0.024247,0.99862
-0.111262,-0.022154,-0.194954,0.062458,-0.024491,0.998864
-0.111262,-0.022154,-0.194954,0.062702,-0.024491,0.99862
-0.111262,-0.022154,-0.194954,0.063191,-0.024491,0.998864
-0.111262,-0.022154,-0.194954,0.063191,-0.024491,0.999108
-0.111262,-0.052923,-0.194954,0.063923,-0.024736,0.998864
-0.111262,-0.052923,-0.194954,0.064655,-0.024491,0.999108
-0.111262,-0.022154,-0.194954,0.064411,-0.024736,0.999596
-0.111262,-0.022154,-0.194954,0.0649,-0.02498,0.999352
-0.142031,-0.022154,-0.194954,0.065144,-0.025224,0.999108
-0.142031,-0.022154,-0.164185,0.0649,-0.025468,0.999108
-0.142031,0.008615,-0.164185,0.065144,-0.025224,0.998375
-0.142031,-0.022154,-0.164185,0.065388,-0.025712,0.997643
-0.142031,0.008615,-0.164185,0.065144,-0.025956,0.997399
-0.142031,0.008615,-0.164185,0.065388,-0.025712,0.997155
-0.142031,0.008615,-0.164185,0.065388,-0.025712,0.996911
-0.1728,-0.022154,-0.164185,0.065144,-0.025468,0.996178
-0.1728,-0.022154,-0.164185,0.064655,-0.025468,0.996422
-0.203569,0.008615,-0.164185,0.064411,-0.025956,0.995446
-0.203569,0.008615,-0.164185,0.064411,-0.025956,0.995202
-0.203569,0.008615,-0.164185,0.063923,-0.025468,0.996422
-0.1728,0.039385,-0.164185,0.063435,-0.025712,0.997155
-0.203569,0.039385,-0.164185,0.063679,-0.025956,0.996911
-0.203569,0.039385,-0.164185,0.063679,-0.025712,0.997155
-0.1728,0.070154,-0.194954,0.063191,-0.025468,0.997643
-0.1728,0.070154,-0.194954,0.062946,-0.025224,0.997643
-0.1728,0.039385,-0.164185,0.062458,-0.025956,0.997643
-0.1728,0.070154,-0.194954,0.06197,-0.025712,0.997155
-0.1728,0.070154,-0.194954,0.061482,-0.025468,0.996911
-0.142031,0.039385,-0.164185,0.061726,-0.02498,0.996422
-0.142031,0.008615,-0.164185,0.06197,-0.024736,0.996422
-0.142031,0.008615,-0.194954,0.06197,-0.025468,0.996911
-0.142031,0.008615,-0.194954,0.061482,-0.025712,0.996911
-0.142031,-0.022154,-0.225723,0.061726,-0.025712,0.997887
-0.142031,-0.022154,-0.194954,0.062214,-0.025712,0.998131
-0.111262,-0.052923,-0.164185,0.062702,-0.0262,0.997643
-0.111262,-0.052923,-0.194954,0.063679,-0.0262,0.997155
-0.111262,-0.052923,-0.194954,0.063435,-0.0262,0.997643
-0.080492,-0.083692,-0.164185,0.062946,-0.026445,0.997887
-0.080492,-0.083692,-0.194954,0.063191,-0.0262,0.997399
-0.111262,-0.083692,-0.194954,0.062702,-0.025956,0.997155
-0.111262,-0.083692,-0.194954,0.062702,-0.025712,0.997155
-0.080492,-0.083692,-0.194954,0.062946,-0.025468,0.997399
-0.111262,-0.083692,-0.194954,0.063191,-0.025712,0.996911
-0.111262,-0.083692,-0.194954,0.063679,-0.025712,0.996666
-0.111262,-0.083692,-0.194954,0.063679,-0.025712,0.996422
-0.080492,-0.083692,-0.194954,0.063435,-0.025468,0.996422
-0.080492,-0.052923,-0.164185,0.063435,-0.02498,0.995934
-0.080492,-0.052923,-0.194954,0.063679,-0.02498,0.996422
-0.080492,-0.052923,-0.194954,0.063679,-0.025224,0.996178
-0.080492,-0.052923,-0.225723,0.063679,-0.025224,0.996666
-0.111262,-0.052923,-0.225723,0.063191,-0.025712,0.997155
-0.111262,-0.022154,-0.225723,0.063435,-0.025712,0.996666
-0.111262,-0.022154,-0.225723,0.063435,-0.025224,0.996666
-0.111262,0.008615,-0.225723,0.063435,-0.024736,0.996911
-0.142031,0.008615,-0.194954,0.063679,-0.024247,0.996911
-0.142031,0.008615,-0.194954,0.063191,-0.024003,0.997399
-0.1728,0.039385,-0.194954,0.062702,-0.024003,0.997155
-0.1728,0.039385,-0.194954,0.062458,-0.024491,0.996911
-0.1728,0.039385,-0.164185,0.062214,-0.024491,0.996422
-0.142031,0.039385,-0.194954,0.06197,-0.024736,0.996178
-0.142031,0.039385,-0.194954,0.06197,-0.025224,0.995934
-0.142031,0.039385,-0.194954,0.061237,-0.025468,0.995202
-0.1728,0.039385,-0.194954,0.060993,-0.025468,0.995202
-0.1728,0.008615,-0.194954,0.061237,-0.025468,0.995446
-0.203569,-0.022154,-0.194954,0.061237,-0.025712,0.996178
-0.203569,-0.022154,-0.194954,0.060993,-0.025712,0.996666
-0.203569,-0.022154,-0.194954,0.060749,-0.025712,0.996422
-0.203569,-0.022154,-0.194954,0.060993,-0.025712,0.996666
-0.1728,-0.022154,-0.194954,0.061726,-0.025468,0.996911
-0.1728,-0.022154,-0.194954,0.061726,-0.025224,0.997155
-0.1728,0.008615,-0.164185,0.061482,-0.025224,0.997399
-0.203569,0.008615,-0.164185,0.061237,-0.025712,0.997887
-0.203569,-0.022154,-0.164185,0.061237,-0.0262,0.997399
-0.203569,-0.022154,-0.164185,0.061237,-0.0262,0.996422
-0.1728,-0.022154,-0.164185,0.061237,-0.026445,0.996422
-0.1728,-0.022154,-0.164185,0.060993,-0.026689,0.996911
-0.142031,-0.022154,-0.164185,0.060749,-0.025712,0.996422
-0.111262,-0.022154,-0.164185,0.061237,-0.025468,0.997155
-0.111262,-0.022154,-0.164185,0.061482,-0.025224,0.997643
-0.111262,-0.022154,-0.164185,0.061237,-0.02498,0.997643
-0.142031,-0.022154,-0.164185,0.061237,-0.024491,0.997643
-0.142031,-0.022154,-0.164185,0.061482,-0.02498,0.997155
-0.111262,-0.052923,-0.194954,0.06197,-0.025224,0.997155
-0.111262,-0.052923,-0.194954,0.06197,-0.025468,0.997155
-0.111262,-0.052923,-0.194954,0.062458,-0.02498,0.996666
-0.111262,-0.022154,-0.194954,0.062458,-0.025224,0.996422
-0.111262,-0.022154,-0.194954,0.062702,-0.02498,0.995934
-0.142031,-0.022154,-0.194954,0.063435,-0.02498,0.99569
-0.142031,-0.022154,-0.194954,0.064167,-0.024491,0.995934
-0.142031,-0.052923,-0.194954,0.063923,-0.024736,0.995934
-0.142031,-0.052923,-0.194954,0.063923,-0.02498,0.996178
-0.142031,-0.022154,-0.194954,0.064167,-0.02498,0.996666
-0.142031,-0.022154,-0.194954,0.063923,-0.02498,0.996666
-0.142031,0.008615,-0.194954,0.064411,-0.02498,0.996666
-0.1728,0.008615,-0.194954,0.064655,-0.02498,0.996666
-0.1728,0.008615,-0.194954,0.064655,-0.025224,0.997155
-0.1728,-0.022154,-0.194954,0.064655,-0.025224,0.998131
-0.1728,-0.022154,-0.194954,0.064411,-0.025468,0.998131
-0.1728,-0.022154,-0.194954,0.064655,-0.025224,0.998131
-0.142031,0.008615,-0.194954,0.064655,-0.025224,0.998864
-0.142031,0.008615,-0.164185,0.0649,-0.025468,0.999108
-0.111262,0.008615,-0.164185,0.064411,-0.025224,0.998375
-0.111262,0.008615,-0.164185,0.063923,-0.02498,0.997887
-0.111262,-0.022154,-0.164185,0.064167,-0.025224,0.998131
-0.111262,-0.022154,-0.164185,0.063923,-0.025224,0.998864
-0.111262,-0.022154,-0.164185,0.063679,-0.025712,0.999108
-0.111262,-0.022154,-0.133415,0.063435,-0.025468,0.999352
-0.111262,-0.022154,-0.164185,0.062702,-0.025224,0.998864
-0.080492,-0.022154,-0.164185,0.061726,-0.024491,0.999108
-0.080492,-0.022154,-0.164185,0.061726,-0.024736,0.999352
-0.080492,-0.022154,-0.164185,0.062214,-0.025224,0.99862
-0.111262,-0.022154,-0.133415,0.063191,-0.025468,0.99862
-0.111262,-0.052923,-0.133415,0.063435,-0.025224,0.99862
-0.111262,-0.052923,-0.164185,0.062946,-0.025468,0.99862
-0.080492,-0.022154,-0.164185,0.062702,-0.025468,0.99862
-0.080492,-0.022154,-0.164185,0.063191,-0.024736,0.998864
-0.111262,0.008615,-0.164185,0.063191,-0.024491,0.999108
-0.080492,0.008615,-0.164185,0.063435,-0.024247,0.999352
-0.111262,0.008615,-0.164185,0.063923,-0.024003,0.999352
-0.142031,0.008615,-0.164185,0.063679,-0.023515,0.999596
-0.142031,0.008615,-0.194954,0.063679,-0.023515,0.999108
-0.142031,0.008615,-0.194954,0.063435,-0.024003,0.999352
-0.111262,0.008615,-0.194954,0.063435,-0.024491,0.99862
-0.111262,0.008615,-0.194954,0.062702,-0.024491,0.998375
-0.111262,0.008615,-0.194954,0.062458,-0.024491,0.998864
-0.111262,0.039385,-0.194954,0.062214,-0.02498,0.999352
-0.080492,0.008615,-0.194954,0.062214,-0.024736,0.999108
-0.111262,0.008615,-0.164185,0.062214,-0.024491,0.998864
-0.111262,0.008615,-0.164185,0.063435,-0.024003,0.997887
-0.111262,0.008615,-0.164185,0.063679,-0.024003,0.997399
-0.142031,0.039385,-0.164185,0.063435,-0.023759,0.997155
-0.142031,0.039385,-0.194954,0.063435,-0.023759,0.997155
-0.111262,0.008615,-0.194954,0.063435,-0.023759,0.997155
-0.111262,0.039385,-0.194954,0.062946,-0.023515,0.997399
-0.111262,0.008615,-0.194954,0.063191,-0.023271,0.997643
-0.142031,0.008615,-0.164185,0.063191,-0.023271,0.997887
-0.142031,-0.022154,-0.164185,0.062458,-0.023515,0.997155
-0.142031,-0.052923,-0.164185,0.062702,-0.023515,0.996422
-0.142031,-0.052923,-0.194954,0.063191,-0.023271,0.996422
-0.142031,-0.052923,-0.194954,0.063191,-0.023027,0.996666
-0.142031,-0.052923,-0.194954,0.062458,-0.023271,0.996422
-0.111262,-0.052923,-0.194954,0.062214,-0.023515,0.996422
-0.111262,-0.052923,-0.194954,0.062702,-0.023515,0.996422
-0.111262,-0.083692,-0.164185,0.062702,-0.024003,0.996666
-0.111262,-0.083692,-0.164185,0.062458,-0.024491,0.996178
-0.080492,-0.083692,-0.164185,0.062946,-0.024736,0.996178
-0.080492,-0.083692,-0.194954,0.063191,-0.024736,0.996178
-0.049723,-0.083692,-0.164185,0.062702,-0.02498,0.997887
-0.080492,-0.052923,-0.164185,0.062702,-0.02498,0.998864
-0.080492,-0.052923,-0.164185,0.063191,-0.024736,0.998375
-0.080492,-0.052923,-0.164185,0.063191,-0.02498,0.99862
-0.049723,-0.052923,-0.164185,0.063435,-0.024736,0.998375
-0.080492,-0.083692,-0.164185,0.063435,-0.025224,0.998375
-0.049723,-0.083692,-0.194954,0.063435,-0.025224,0.997887
-0.080492,-0.052923,-0.194954,0.063679,-0.025468,0.998131
-0.080492,-0.052923,-0.194954,0.063923,-0.025468,0.997887
-0.049723,-0.052923,-0.164185,0.064411,-0.025468,0.998131
-0.049723,-0.052923,-0.164185,0.064411,-0.02498,0.998375
-0.049723,-0.052923,-0.164185,0.0649,-0.024736,0.998864
-0.049723,-0.022154,-0.164185,0.064167,-0.024736,0.998864
-0.049723,-0.022154,-0.164185,0.064655,-0.024491,0.998131
-0.080492,-0.022154,-0.164185,0.064655,-0.024003,0.99862
-0.080492,-0.022154,-0.164185,0.063923,-0.024003,0.999108
-0.049723,0.008615,-0.164185,0.063679,-0.024003,0.99984
-0.049723,0.008615,-0.164185,0.063679,-0.024003,0.999596
-0.049723,0.008615,-0.164185,0.063191,-0.024247,0.999108
-0.080492,0.008615,-0.133415,0.063435,-0.024736,0.998131
-0.111262,0.008615,-0.133415,0.063679,-0.02498,0.997155
-0.111262,0.039385,-0.164185,0.063923,-0.024736,0.997399
-0.111262,0.039385,-0.164185,0.063679,-0.024491,0.997643
-0.111262,0.039385,-0.164185,0.063679,-0.024736,0.997887
-0.111262,0.039385,-0.164185,0.063191,-0.024003,0.997399
-0.111262,0.008615,-0.133415,0.063923,-0.024003,0.997399
-0.111262,0.008615,-0.164185,0.064167,-0.023759,0.997155
-0.142031,0.008615,-0.164185,0.064167,-0.023759,0.997399
-0.142031,-0.022154,-0.164185,0.064167,-0.023515,0.997399
-0.142031,0.008615,-0.164185,0.063435,-0.023759,0.996911
-0.111262,0.008615,-0.164185,0.062946,-0.024247,0.996422
-0.111262,0.008615,-0.164185,0.062702,-0.024491,0.996422
-0.111262,0.008615,-0.164185,0.062214,-0.02498,0.996911
-0.111262,-0.022154,-0.164185,0.06197,-0.02498,0.997155
-0.111262,-0.022154,-0.164185,0.061726,-0.02498,0.997887
-0.142031,-0.022154,-0.164185,0.061237,-0.024736,0.997887
-0.111262,-0.052923,-0.164185,0.061482,-0.02498,0.998131
-0.111262,-0.052923,-0.164185,0.061726,-0.02498,0.998375
-0.111262,-0.083692,-0.164185,0.061726,-0.02498,0.998375
-0.080492,-0.083692,-0.164185,0.062214,-0.025224,0.998864
-0.080492,-0.083692,-0.164185,0.062458,-0.024736,0.999352
-0.111262,-0.114462,-0.164185,0.06197,-0.024736,0.99984
-0.111262,-0.114462,-0.194954,0.06197,-0.024736,1.000084
-0.111262,-0.083692,-0.164185,0.062214,-0.025224,1.000329
-0.142031,-0.083692,-0.164185,0.063191,-0.025224,0.99984
-0.142031,-0.083692,-0.164185,0.063191,-0.025224,0.998864
-0.111262,-0.052923,-0.164185,0.063435,-0.025468,0.997887
-0.111262,-0.052923,-0.164185,0.062946,-0.02498,0.996911
-0.111262,-0.052923,-0.164185,0.062702,-0.02498,0.996666
-0.111262,-0.052923,-0.164185,0.062702,-0.02498,0.996666
-0.111262,-0.052923,-0.164185,0.063191,-0.024736,0.996666
-0.111262,-0.052923,-0.164185,0.063679,-0.02498,0.996911
-0.111262,-0.022154,-0.164185,0.063679,-0.02498,0.996666
-0.142031,-0.022154,-0.194954,0.063679,-0.024491,0.996422
-0.142031,-0.022154,-0.194954,0.063923,-0.024736,0.996422
-0.142031,-0.022154,-0.164185,0.063679,-0.024491,0.997643
-0.142031,-0.022154,-0.164185,0.063679,-0.024247,0.99862
-0.142031,-0.022154,-0.164185,0.063435,-0.024491,0.998375
-0.142031,-0.022154,-0.164185,0.063191,-0.02498,0.998375
-0.142031,-0.022154,-0.164185,0.063679,-0.024491,0.998131
-0.142031,-0.022154,-0.164185,0.063435,-0.02498,0.996911
-0.142031,-0.022154,-0.164185,0.063191,-0.02498,0.996178
-0.142031,-0.022154,-0.194954,0.063679,-0.024736,0.99569
-0.142031,-0.022154,-0.194954,0.063923,-0.024736,0.996666
-0.142031,0.008615,-0.194954,0.063923,-0.024491,0.997399
-0.1728,-0.022154,-0.194954,0.063679,-0.024247,0.997399
-0.1728,-0.022154,-0.194954,0.063923,-0.024491,0.997399
-0.1728,-0.022154,-0.194954,0.064655,-0.024491,0.997399
-0.1728,-0.022154,-0.194954,0.064655,-0.024491,0.997399
-0.203569,-0.022154,-0.164185,0.0649,-0.024491,0.998131
-0.203569,-0.022154,-0.164185,0.065144,-0.024736,0.997887
-0.1728,-0.022154,-0.164185,0.064411,-0.024736,0.997887
-0.1728,-0.022154,-0.164185,0.063679,-0.024736,0.997643
-0.1728,-0.022154,-0.133415,0.063923,-0.024736,0.997399
-0.142031,-0.022154,-0.164185,0.064655,-0.024736,0.997399
-0.142031,-0.022154,-0.164185,0.064655,-0.024491,0.997399
-0.142031,-0.052923,-0.164185,0.0649,-0.024247,0.997399
-0.142031,-0.022154,-0.164185,0.0649,-0.02498,0.997887
-0.142031,-0.022154,-0.164185,0.064411,-0.02498,0.998375
-0.142031,-0.022154,-0.164185,0.064655,-0.025224,0.99862
-0.142031,-0.052923,-0.164185,0.065144,-0.02498,0.99862
-0.142031,-0.052923,-0.164185,0.065144,-0.02498,0.998864
-0.111262,-0.022154,-0.133415,0.0649,-0.024736,0.998864
-0.111262,-0.022154,-0.133415,0.0649,-0.024736,0.99862
-0.142031,-0.022154,-0.133415,0.0649,-0.024736,0.997399
-0.142031,0.008615,-0.133415,0.064167,-0.025224,0.996666
-0.142031,0.008615,-0.133415,0.063435,-0.025224,0.997887
-0.142031,0.039385,-0.133415,0.062946,-0.025224,0.998131
-0.142031,0.039385,-0.164185,0.062702,-0.025468,0.998131
-0.142031,0.039385,-0.164185,0.062458,-0.025224,0.998375
-0.142031,0.039385,-0.164185,0.062458,-0.024736,0.997643
-0.1728,0.008615,-0.133415,0.062946,-0.024003,0.997399
-0.142031,0.039385,-0.133415,0.063435,-0.024003,0.996666
-0.142031,0.039385,-0.164185,0.063435,-0.024491,0.996422
-0.142031,0.039385,-0.164185,0.062702,-0.024736,0.997155
-0.111262,0.008615,-0.194954,0.062458,-0.02498,0.997399
-0.111262,0.039385,-0.194954,0.062458,-0.02498,0.997399
-0.111262,0.008615,-0.194954,0.062214,-0.02498,0.997155
-0.111262,0.008615,-0.164185,0.062458,-0.024736,0.996911
-0.080492,0.008615,-0.164185,0.062702,-0.024491,0.996911
-0.080492,0.008615,-0.194954,0.063191,-0.02498,0.996911
-0.080492,0.008615,-0.164185,0.062946,-0.02498,0.997155
-0.080492,-0.022154,-0.194954,0.062946,-0.02498,0.998131
-0.049723,-0.052923,-0.194954,0.062214,-0.025224,0.998864
-0.049723,-0.052923,-0.194954,0.062458,-0.02498,0.999352
-0.049723,-0.083692,-0.194954,0.063435,-0.025224,0.99862
-0.080492,-0.083692,-0.194954,0.063679,-0.025468,0.998375
-0.080492,-0.114462,-0.194954,0.063679,-0.02498,0.998375
-0.049723,-0.114462,-0.194954,0.063435,-0.02498,0.998131
-0.049723,-0.083692,-0.194954,0.063435,-0.024736,0.998131
-0.049723,-0.083692,-0.194954,0.063435,-0.024247,0.997643
-0.080492,-0.052923,-0.194954,0.062946,-0.024247,0.998131
-0.080492,-0.083692,-0.194954,0.062946,-0.024247,0.998375
-0.080492,-0.083692,-0.194954,0.062946,-0.023759,0.998375
-0.111262,-0.052923,-0.164185,0.063191,-0.024003,0.99862
-0.111262,-0.052923,-0.164185,0.063679,-0.024003,0.999108
-0.111262,-0.052923,-0.164185,0.0649,-0.024003,0.999108
-0.111262,-0.052923,-0.164185,0.0649,-0.024247,0.998864
-0.111262,-0.052923,-0.164185,0.0649,-0.024247,0.999108
-0.111262,-0.052923,-0.164185,0.0649,-0.024247,0.999352
-0.111262,-0.052923,-0.164185,0.064411,-0.024491,0.998375
-0.111262,-0.022154,-0.164185,0.063923,-0.024247,0.997887
-0.111262,-0.022154,-0.164185,0.063923,-0.024003,0.997643
-0.142031,0.008615,-0.164185,0.063923,-0.023759,0.996911
-0.111262,0.008615,-0.194954,0.064167,-0.023759,0.996422
-0.111262,0.039385,-0.194954,0.063679,-0.023759,0.996911
-0.111262,0.039385,-0.194954,0.063191,-0.023759,0.997155
-0.111262,0.039385,-0.194954,0.063191,-0.023759,0.997399
-0.111262,0.039385,-0.194954,0.062946,-0.023759,0.997399
-0.080492,0.008615,-0.164185,0.062702,-0.024247,0.997155
-0.080492,0.039385,-0.164185,0.062702,-0.02498,0.997155
-0.080492,0.039385,-0.164185,0.062702,-0.02498,0.997399
-0.080492,0.039385,-0.164185,0.063435,-0.025224,0.997643
-0.080492,0.039385,-0.164185,0.063435,-0.025224,0.997643
-0.111262,0.039385,-0.164185,0.062946,-0.02498,0.998375
-0.111262,0.008615,-0.164185,0.062214,-0.024736,0.998864
-0.142031,0.008615,-0.164185,0.062458,-0.02498,0.999108
-0.142031,0.008615,-0.164185,0.063191,-0.024491,0.99862
-0.142031,0.008615,-0.164185,0.063191,-0.024003,0.998375
-0.142031,0.008615,-0.164185,0.063435,-0.024247,0.997887
-0.142031,0.008615,-0.164185,0.063435,-0.024491,0.99862
-0.111262,0.008615,-0.164185,0.063191,-0.024736,0.998375
-0.111262,0.008615,-0.194954,0.06197,-0.025224,0.998131
-0.111262,0.008615,-0.194954,0.061237,-0.025224,0.996911
-0.142031,0.008615,-0.194954,0.061237,-0.02498,0.996178
-0.142031,0.008615,-0.194954,0.061482,-0.02498,0.996666
-0.142031,-0.022154,-0.164185,0.06197,-0.025224,0.997643
-0.142031,0.008615,-0.164185,0.06197,-0.025224,0.998131
-0.142031,0.008615,-0.164185,0.06197,-0.025712,0.998375
-0.142031,0.008615,-0.194954,0.06197,-0.025712,0.998864
-0.111262,0.008615,-0.194954,0.062458,-0.02498,0.99862
-0.111262,0.008615,-0.164185,0.062946,-0.02498,0.998131
-0.111262,-0.022154,-0.164185,0.062946,-0.02498,0.997643
-0.111262,-0.022154,-0.164185,0.062702,-0.025224,0.997399
-0.080492,-0.022154,-0.164185,0.062458,-0.025468,0.996666
-0.080492,-0.022154,-0.164185,0.062458,-0.025712,0.996422
-0.080492,-0.022154,-0.164185,0.062458,-0.025712,0.996666
-0.080492,0.008615,-0.164185,0.062458,-0.025712,0.996911
-0.111262,-0.022154,-0.194954,0.062458,-0.025468,0.996666
-0.111262,-0.022154,-0.194954,0.063191,-0.025468,0.996666
-0.111262,0.008615,-0.194954,0.063679,-0.025712,0.996911
-0.111262,-0.022154,-0.194954,0.063923,-0.025956,0.997887
-0.142031,-0.022154,-0.225723,0.063923,-0.0262,0.997643
-0.142031,-0.022154,-0.194954,0.063923,-0.0262,0.997155
-0.142031,0.008615,-0.194954,0.064411,-0.025712,0.996666
-0.142031,0.008615,-0.194954,0.064167,-0.025712,0.996911
-0.142031,-0.022154,-0.164185,0.064411,-0.025712,0.996422
-0.142031,-0.022154,-0.164185,0.064655,-0.025712,0.996422
-0.1728,-0.022154,-0.164185,0.064167,-0.025956,0.997155
-0.142031,-0.022154,-0.194954,0.062946,-0.0262,0.996911
-0.142031,0.008615,-0.194954,0.062702,-0.025956,0.997887
-0.142031,0.008615,-0.194954,0.062702,-0.025712,0.99862
-0.142031,0.008615,-0.194954,0.062946,-0.025224,0.999108
-0.111262,0.039385,-0.194954,0.063191,-0.02498,0.999108
-0.111262,0.039385,-0.194954,0.063191,-0.025224,0.998864
-0.111262,0.008615,-0.194954,0.062946,-0.025468,0.998131
-0.111262,0.008615,-0.194954,0.062946,-0.025956,0.998131
-0.111262,-0.022154,-0.194954,0.062702,-0.0262,0.999352
-0.080492,-0.052923,-0.194954,0.063191,-0.025712,1.000329
-0.080492,-0.052923,-0.194954,0.063191,-0.025712,1.000329
-0.080492,-0.052923,-0.194954,0.062946,-0.025224,1.000329
-0.111262,-0.052923,-0.194954,0.062702,-0.024736,1.000573
-0.111262,-0.052923,-0.194954,0.062702,-0.02498,1.000573
-0.080492,-0.052923,-0.194954,0.062946,-0.02498,1.000573
-0.080492,-0.052923,-0.194954,0.062946,-0.02498,1.000329
-0.080492,-0.052923,-0.194954,0.063679,-0.025224,1.000084
-0.080492,-0.052923,-0.194954,0.063435,-0.024736,1.000817
-0.111262,-0.022154,-0.194954,0.063435,-0.024491,1.001061
-0.111262,-0.022154,-0.194954,0.063435,-0.024491,1.000817
-0.111262,-0.022154,-0.225723,0.063435,-0.024247,1.000573
-0.142031,-0.022154,-0.225723,0.063435,-0.024491,1.001061
-0.142031,0.008615,-0.225723,0.063191,-0.024736,1.000329
-0.142031,0.039385,-0.225723,0.062702,-0.024491,1.000084
-0.1728,0.008615,-0.194954,0.062214,-0.024003,0.999596
-0.142031,0.008615,-0.194954,0.062458,-0.024247,0.999108
-0.1728,0.039385,-0.194954,0.062458,-0.024003,0.999108
-0.1728,0.039385,-0.194954,0.062946,-0.024247,0.999352
-0.1728,0.039385,-0.194954,0.062214,-0.02498,0.998375
-0.203569,0.039385,-0.194954,0.062702,-0.024736,0.998375
-0.1728,0.039385,-0.194954,0.062458,-0.02498,0.99862
-0.1728,0.039385,-0.194954,0.06197,-0.024736,0.998864
-0.142031,0.039385,-0.194954,0.061237,-0.02498,0.99862
-0.142031,0.008615,-0.194954,0.061482,-0.025712,0.998375
-0.142031,0.008615,-0.225723,0.062214,-0.025468,0.999108
-0.111262,0.008615,-0.194954,0.062458,-0.025712,0.999108
-0.111262,0.008615,-0.194954,0.062458,-0.025956,0.998864
-0.111262,-0.022154,-0.225723,0.062702,-0.0262,0.999108
-0.080492,-0.022154,-0.225723,0.062214,-0.0262,0.999108
-0.080492,0.008615,-0.194954,0.062214,-0.0262,0.999352
-0.080492,0.008615,-0.194954,0.06197,-0.025956,0.998864
-0.111262,0.008615,-0.194954,0.062458,-0.025468,0.998864
-0.111262,-0.022154,-0.194954,0.062458,-0.025224,0.998864
-0.111262,-0.022154,-0.194954,0.062702,-0.025224,0.999596
-0.111262,-0.022154,-0.194954,0.062946,-0.025468,1.000084
-0.111262,-0.022154,-0.194954,0.063191,-0.025956,1.000329
-0.080492,-0.052923,-0.194954,0.062946,-0.0262,1.001061
-0.080492,-0.052923,-0.194954,0.062946,-0.026445,1.000817
-0.049723,-0.052923,-0.194954,0.063435,-0.025956,1.000573
-0.049723,-0.083692,-0.194954,0.062946,-0.025712,1.000084
-0.049723,-0.083692,-0.194954,0.063191,-0.025468,1.000084
-0.049723,-0.083692,-0.194954,0.063923,-0.025712,1.000573
-0.080492,-0.083692,-0.194954,0.063923,-0.025956,1.000573
-0.080492,-0.083692,-0.194954,0.063679,-0.0262,1.000329
-0.080492,-0.083692,-0.194954,0.063435,-0.0262,0.999596
-0.080492,-0.083692,-0.194954,0.063435,-0.026445,0.999108
-0.080492,-0.083692,-0.194954,0.063191,-0.0262,0.99984
-0.111262,-0.083692,-0.194954,0.062946,-0.025956,0.999596
-0.111262,-0.083692,-0.225723,0.062946,-0.025468,1.000084
-0.111262,-0.052923,-0.194954,0.063435,-0.025468,1.000573
-0.111262,-0.022154,-0.194954,0.064167,-0.02498,1.000329
-0.111262,-0.022154,-0.194954,0.064167,-0.024736,1.000329
-0.111262,-0.022154,-0.194954,0.063923,-0.024491,1.000573
-0.142031,0.008615,-0.194954,0.063435,-0.024247,1.000084
-0.111262,0.039385,-0.164185,0.063679,-0.024491,0.998864
-0.111262,0.039385,-0.164185,0.063191,-0.02498,0.997887
-0.142031,0.070154,-0.133415,0.062458,-0.025956,0.99862
-0.142031,0.070154,-0.164185,0.062458,-0.025468,0.999108
-0.1728,0.070154,-0.164185,0.062702,-0.025468,0.999108
-0.142031,0.039385,-0.164185,0.062214,-0.025712,0.999596
-0.142031,0.039385,-0.164185,0.062214,-0.025956,0.99862
-0.142031,0.039385,-0.164185,0.06197,-0.025956,0.998131
-0.142031,0.039385,-0.194954,0.061726,-0.025468,0.998131
-0.142031,0.008615,-0.194954,0.061237,-0.025468,0.997643
-0.142031,-0.022154,-0.194954,0.061482,-0.025224,0.997155
-0.142031,0.008615,-0.164185,0.061237,-0.024736,0.997399
-0.1728,0.008615,-0.164185,0.061482,-0.024491,0.997643
-0.142031,0.008615,-0.164185,0.061482,-0.024736,0.997887
-0.111262,-0.022154,-0.164185,0.061482,-0.025224,0.998131
-0.142031,-0.022154,-0.164185,0.061726,-0.025224,0.99862
-0.111262,-0.022154,-0.164185,0.061726,-0.025468,0.99862
-0.111262,-0.052923,-0.164185,0.061482,-0.025712,0.998375
-0.111262,-0.052923,-0.164185,0.061726,-0.025712,0.998864
-0.111262,-0.052923,-0.164185,0.062214,-0.025956,0.998864
-0.080492,-0.083692,-0.164185,0.062458,-0.025224,0.99862
-0.080492,-0.083692,-0.164185,0.062702,-0.025468,0.998864
-0.049723,-0.083692,-0.164185,0.062458,-0.02498,0.99862
-0.018954,-0.083692,-0.164185,0.062214,-0.025224,0.998131
-0.018954,-0.083692,-0.164185,0.062214,-0.02498,0.996666
-0.049723,-0.114462,-0.164185,0.06197,-0.024491,0.996178
-0.049723,-0.114462,-0.164185,0.062702,-0.024247,0.995202
-0.049723,-0.145231,-0.194954,0.063191,-0.024247,0.994469
-0.049723,-0.114462,-0.164185,0.062946,-0.024491,0.994469
-0.049723,-0.114462,-0.194954,0.063191,-0.024491,0.994957
-0.049723,-0.114462,-0.164185,0.063435,-0.024003,0.995446
-0.018954,-0.114462,-0.164185,0.062946,-0.024003,0.995446
-0.018954,-0.083692,-0.194954,0.062458,-0.024491,0.995934
-0.018954,-0.083692,-0.194954,0.062946,-0.02498,0.994957
-0.018954,-0.083692,-0.194954,0.062458,-0.024491,0.995202
-0.049723,-0.052923,-0.194954,0.062946,-0.024491,0.996178
-0.080492,-0.052923,-0.164185,0.063191,-0.024736,0.996422
-0.080492,-0.052923,-0.194954,0.063435,-0.02498,0.996911
-0.080492,-0.052923,-0.194954,0.063191,-0.02498,0.997399
-0.080492,-0.052923,-0.194954,0.063435,-0.024736,0.997399
-0.111262,-0.022154,-0.164185,0.064167,-0.024736,0.997399
-0.111262,-0.022154,-0.164185,0.064411,-0.024247,0.998131
-0.111262,-0.022154,-0.133415,0.064411,-0.024247,0.997887
-0.142031,-0.022154,-0.133415,0.064167,-0.024491,0.997887
-0.142031,-0.022154,-0.164185,0.064167,-0.024736,0.997399
-0.142031,-0.022154,-0.164185,0.064167,-0.024736,0.997155
-0.142031,0.008615,-0.164185,0.064167,-0.024736,0.997399
-0.1728,0.008615,-0.164185,0.063679,-0.024736,0.997399
-0.1728,0.008615,-0.164185,0.063923,-0.02498,0.997155
-0.1728,0.008615,-0.194954,0.064167,-0.024736,0.996911
-0.1728,0.008615,-0.164185,0.063923,-0.024491,0.996911
-0.1728,-0.022154,-0.194954,0.063923,-0.024736,0.997399
-0.142031,-0.022154,-0.194954,0.064167,-0.02498,0.997399
-0.142031,0.008615,-0.164185,0.063435,-0.02498,0.998375
-0.142031,0.039385,-0.194954,0.062702,-0.02498,0.99862
-0.142031,0.008615,-0.194954,0.062458,-0.024736,0.999108
-0.111262,0.008615,-0.164185,0.062458,-0.024736,0.998864
-0.142031,0.008615,-0.194954,0.062946,-0.024736,0.999108
-0.1728,-0.022154,-0.194954,0.062214,-0.02498,0.998864
-0.1728,0.008615,-0.194954,0.062458,-0.025224,0.998864
-0.1728,0.008615,-0.194954,0.062946,-0.025712,0.998864
-0.142031,0.008615,-0.164185,0.063435,-0.0262,0.998864
-0.142031,0.039385,-0.164185,0.063435,-0.026445,0.998864
-0.111262,0.039385,-0.164185,0.062946,-0.026689,0.999352
-0.142031,0.039385,-0.164185,0.063191,-0.026445,0.999352
-0.142031,0.008615,-0.164185,0.062702,-0.025956,0.99862
-0.142031,-0.022154,-0.164185,0.062458,-0.026445,0.997887
-0.142031,-0.022154,-0.164185,0.06197,-0.026689,0.997399
-0.142031,-0.022154,-0.164185,0.061726,-0.026445,0.997155
-0.142031,-0.052923,-0.164185,0.061482,-0.0262,0.997155
-0.142031,-0.022154,-0.133415,0.061726,-0.025956,0.996666
-0.142031,-0.022154,-0.133415,0.061726,-0.025468,0.996178
-0.1728,-0.022154,-0.164185,0.06197,-0.02498,0.996911
-0.1728,-0.022154,-0.164185,0.062214,-0.024736,0.997399
-0.1728,-0.022154,-0.194954,0.062702,-0.024491,0.998131
-0.1728,-0.022154,-0.194954,0.062946,-0.02498,0.998864
-0.142031,-0.022154,-0.194954,0.063191,-0.024736,0.999352
-0.142031,-0.022154,-0.194954,0.062946,-0.02498,0.999596
-0.142031,-0.022154,-0.194954,0.062702,-0.024736,0.999596
-0.142031,-0.022154,-0.194954,0.062214,-0.024247,0.999352
-0.142031,-0.022154,-0.194954,0.06197,-0.024003,1.000084
-0.1728,-0.022154,-0.194954,0.062458,-0.024247,0.999596
-0.142031,-0.022154,-0.194954,0.063191,-0.024003,0.999108
-0.1728,-0.022154,-0.194954,0.063679,-0.024003,0.998864
-0.142031,-0.022154,-0.194954,0.063679,-0.024491,0.999596
-0.142031,-0.022154,-0.194954,0.063679,-0.024491,1.000573
-0.142031,-0.022154,-0.194954,0.063435,-0.024736,1.000573
-0.142031,0.008615,-0.194954,0.062946,-0.025224,1.000817
-0.111262,-0.022154,-0.225723,0.062458,-0.025468,1.000573
-0.142031,-0.022154,-0.194954,0.062702,-0.025712,0.99984
-0.142031,-0.022154,-0.194954,0.063435,-0.025224,0.999352
-0.142031,-0.022154,-0.194954,0.063923,-0.02498,0.99984
-0.142031,-0.052923,-0.194954,0.063679,-0.02498,1.000084
-0.142031,-0.052923,-0.194954,0.063923,-0.02498,1.000084
-0.142031,-0.052923,-0.194954,0.064167,-0.024736,0.999596
-0.142031,-0.052923,-0.194954,0.064411,-0.024736,0.999596
-0.142031,-0.022154,-0.194954,0.063923,-0.024491,1.000573
-0.142031,-0.022154,-0.194954,0.064411,-0.02498,1.001305
-0.142031,-0.052923,-0.194954,0.064655,-0.024736,1.001061
-0.1728,-0.022154,-0.164185,0.0649,-0.024247,1.000573
-0.1728,-0.022154,-0.164185,0.064655,-0.024247,1.000084
-0.1728,0.008615,-0.164185,0.064411,-0.024247,0.999596
-0.142031,0.008615,-0.164185,0.064167,-0.024003,1.000329
-0.142031,0.039385,-0.194954,0.062702,-0.024247,1.000084
-0.142031,0.039385,-0.164185,0.062458,-0.024491,0.99984
-0.142031,0.039385,-0.164185,0.062458,-0.024247,0.999596
-0.1728,0.039385,-0.164185,0.062946,-0.024247,0.999352
-0.1728,0.039385,-0.164185,0.063191,-0.024491,0.99984
-0.1728,0.039385,-0.164185,0.062702,-0.025224,1.000084
-0.1728,0.039385,-0.164185,0.062702,-0.025224,0.999352
-0.142031,0.039385,-0.133415,0.062702,-0.025224,1.000084
-0.1728,0.039385,-0.133415,0.062946,-0.02498,1.000329
-0.1728,0.039385,-0.133415,0.063191,-0.024736,1.000329
-0.1728,0.039385,-0.133415,0.063191,-0.024491,1.000573
-0.203569,0.039385,-0.133415,0.063191,-0.025224,1.000084
-0.203569,0.039385,-0.133415,0.062946,-0.025224,0.999108
-0.203569,0.039385,-0.164185,0.063435,-0.025224,0.99862
-0.1728,0.070154,-0.164185,0.062946,-0.025224,0.998375
-0.1728,0.070154,-0.194954,0.062702,-0.025224,0.998375
-0.1728,0.070154,-0.194954,0.062702,-0.025224,0.998131
-0.1728,0.070154,-0.164185,0.062702,-0.025224,0.998864
-0.1728,0.070154,-0.164185,0.062946,-0.025224,0.999108
-0.1728,0.070154,-0.164185,0.062702,-0.025468,0.999596
-0.1728,0.039385,-0.133415,0.06197,-0.025468,0.999352
-0.1728,0.039385,-0.133415,0.062214,-0.025468,0.999108
-0.1728,0.039385,-0.133415,0.062946,-0.025712,0.998864
-0.1728,0.039385,-0.133415,0.062458,-0.025712,0.999352
-0.1728,0.039385,-0.133415,0.06197,-0.025712,0.999108
-0.1728,0.008615,-0.164185,0.06197,-0.025956,0.998375
-0.1728,0.008615,-0.164185,0.061726,-0.025712,0.997887
-0.1728,-0.022154,-0.194954,0.06197,-0.025712,0.997887
-0.1728,-0.052923,-0.194954,0.061482,-0.025712,0.996911
-0.142031,-0.022154,-0.194954,0.060749,-0.025956,0.997155
-0.1728,-0.052923,-0.194954,0.060017,-0.025712,0.997399
-0.142031,-0.083692,-0.164185,0.060261,-0.025712,0.998131
-0.142031,-0.083692,-0.194954,0.060505,-0.025224,0.998864
-0.142031,-0.083692,-0.194954,0.060505,-0.024736,0.998375
-0.142031,-0.083692,-0.194954,0.061482,-0.02498,0.998375
-0.142031,-0.083692,-0.194954,0.061726,-0.02498,0.998131
-0.142031,-0.083692,-0.164185,0.062214,-0.025224,0.997887
-0.142031,-0.052923,-0.164185,0.062214,-0.025224,0.998131
-0.142031,-0.052923,-0.164185,0.062214,-0.025712,0.998131
-0.142031,-0.052923,-0.164185,0.062946,-0.025712,0.998375
-0.111262,-0.052923,-0.164185,0.062946,-0.025224,0.998864
-0.111262,-0.022154,-0.164185,0.063679,-0.024736,0.998864
-0.080492,-0.022154,-0.194954,0.063679,-0.02498,0.998131
-0.080492,-0.022154,-0.194954,0.063679,-0.024736,0.998375
-0.080492,-0.022154,-0.194954,0.063435,-0.024736,0.998131
-0.080492,-0.022154,-0.194954,0.062946,-0.024491,0.998864
-0.049723,0.008615,-0.194954,0.062458,-0.024247,0.999352
-0.049723,0.008615,-0.194954,0.062458,-0.024247,0.99984
-0.080492,0.008615,-0.164185,0.062702,-0.024491,1.000084
-0.080492,0.008615,-0.164185,0.062946,-0.024491,0.999596
-0.080492,0.008615,-0.164185,0.063191,-0.024491,0.999596
-0.111262,0.008615,-0.164185,0.062946,-0.024491,0.999352
-0.111262,0.008615,-0.164185,0.062946,-0.024491,0.999108
-0.111262,0.008615,-0.164185,0.063191,-0.024491,0.998864
-0.111262,0.039385,-0.164185,0.062702,-0.024736,1.000084
-0.111262,0.039385,-0.164185,0.062458,-0.024736,1.000817
-0.111262,0.008615,-0.164185,0.062458,-0.024736,1.000573
-0.111262,-0.022154,-0.164185,0.062458,-0.024247,1.000084
-0.111262,0.008615,-0.194954,0.062702,-0.024003,0.99984
-0.111262,0.008615,-0.164185,0.062946,-0.024003,1.000573
-0.111262,0.008615,-0.164185,0.062702,-0.024003,1.001061
-0.142031,0.008615,-0.164185,0.062946,-0.023759,1.001305
-0.142031,0.008615,-0.164185,0.063679,-0.023759,1.001305
-0.142031,0.008615,-0.164185,0.063435,-0.023759,1.001061
-0.1728,0.008615,-0.194954,0.063435,-0.023515,1.000573
-0.1728,0.008615,-0.194954,0.063435,-0.023759,1.000084
-0.1728,-0.022154,-0.164185,0.063679,-0.024491,1.000329
-0.1728,-0.022154,-0.164185,0.064167,-0.024247,0.999596
-0.1728,-0.022154,-0.164185,0.064167,-0.024003,0.999596
-0.1728,-0.022154,-0.164185,0.064655,-0.024247,0.99984
-0.142031,-0.022154,-0.164185,0.064411,-0.024003,0.999108
-0.142031,-0.022154,-0.164185,0.064167,-0.024247,0.999108
-0.142031,-0.052923,-0.164185,0.063923,-0.024736,0.999108
-0.142031,-0.052923,-0.194954,0.063923,-0.024736,0.999108
-0.142031,-0.052923,-0.194954,0.063679,-0.025224,0.999352
-0.1728,-0.052923,-0.194954,0.063679,-0.025468,0.997887
-0.203569,-0.052923,-0.194954,0.062946,-0.025712,0.997399
-0.1728,-0.052923,-0.194954,0.062458,-0.025712,0.997887
-0.1728,-0.022154,-0.164185,0.062214,-0.025712,0.998375
-0.203569,-0.022154,-0.194954,0.062458,-0.025956,0.997643
-0.203569,-0.022154,-0.194954,0.062458,-0.025956,0.997643
-0.203569,-0.022154,-0.164185,0.062458,-0.025956,0.997399
-0.203569,-0.022154,-0.194954,0.062458,-0.025468,0.997399
-0.1728,-0.022154,-0.194954,0.062214,-0.025468,0.996911
-0.1728,-0.022154,-0.194954,0.06197,-0.025224,0.997643
-0.1728,0.008615,-0.194954,0.06197,-0.024736,0.997887
-0.1728,0.008615,-0.225723,0.06197,-0.024491,0.998131
-0.142031,0.008615,-0.225723,0.062946,-0.024491,0.99862
-0.1728,-0.022154,-0.225723,0.062458,-0.024736,0.999108
-0.142031,-0.022154,-0.225723,0.062458,-0.024736,0.99862
-0.1728,-0.022154,-0.194954,0.062702,-0.024736,0.998375
-0.1728,-0.022154,-0.194954,0.06197,-0.025224,0.997887
-0.1728,0.008615,-0.194954,0.061237,-0.025468,0.998131
-0.1728,0.008615,-0.194954,0.060993,-0.02498,0.998375
-0.1728,0.008615,-0.225723,0.061482,-0.025224,0.997887
-0.142031,0.008615,-0.194954,0.061482,-0.025468,0.998131
-0.142031,0.008615,-0.194954,0.061237,-0.02498,0.998375
-0.142031,0.008615,-0.225723,0.061482,-0.02498,0.99862
-0.111262,0.008615,-0.225723,0.06197,-0.02498,0.997399
-0.111262,0.008615,-0.194954,0.062214,-0.024491,0.996666
-0.111262,0.039385,-0.194954,0.062458,-0.024247,0.996422
-0.111262,0.039385,-0.194954,0.06197,-0.024491,0.996911
-0.111262,0.008615,-0.194954,0.061482,-0.02498,0.997887
-0.080492,0.008615,-0.194954,0.060993,-0.024736,0.999596
-0.111262,0.039385,-0.194954,0.061726,-0.024736,0.99984
-0.111262,0.008615,-0.194954,0.061726,-0.024736,0.999596
-0.080492,0.008615,-0.194954,0.061237,-0.024247,0.999352
-0.080492,0.008615,-0.194954,0.062214,-0.024003,0.99984
-0.111262,0.008615,-0.194954,0.062214,-0.024247,0.99984
-0.111262,-0.022154,-0.194954,0.061482,-0.024247,0.99862
-0.111262,-0.022154,-0.194954,0.061482,-0.024247,0.999352
-0.111262,-0.022154,-0.194954,0.06197,-0.024247,0.999352
-0.111262,-0.022154,-0.194954,0.062458,-0.024491,0.999352
-0.111262,-0.052923,-0.225723,0.062702,-0.024491,0.99862
-0.111262,-0.052923,-0.194954,0.063191,-0.02498,0.99862
-0.111262,-0.022154,-0.225723,0.063679,-0.024736,0.99862
-0.111262,-0.022154,-0.225723,0.063923,-0.024247,0.998864
-0.142031,-0.022154,-0.225723,0.063923,-0.024003,0.998375
-0.111262,-0.022154,-0.225723,0.063191,-0.023759,0.999108
-0.111262,-0.022154,-0.194954,0.063435,-0.024003,0.999108
-0.111262,-0.022154,-0.194954,0.064167,-0.024491,0.998864
-0.111262,-0.022154,-0.194954,0.064655,-0.024003,0.99862
-0.111262,-0.022154,-0.194954,0.064167,-0.024003,0.99862
-0.142031,-0.022154,-0.164185,0.063923,-0.024247,0.999108
-0.142031,0.008615,-0.164185,0.063435,-0.024247,0.99862
-0.111262,0.039385,-0.164185,0.062946,-0.024003,0.998864
-0.111262,0.039385,-0.164185,0.063435,-0.024247,0.999108
-0.111262,0.008615,-0.164185,0.063679,-0.024491,0.99862
-0.111262,0.008615,-0.164185,0.064167,-0.024736,0.998375
-0.111262,0.008615,-0.164185,0.064655,-0.025224,0.998375
-0.080492,0.008615,-0.164185,0.064655,-0.025468,0.998131
-0.080492,0.008615,-0.164185,0.063679,-0.025712,0.997643
-0.080492,0.039385,-0.194954,0.063435,-0.025712,0.996422
-0.111262,0.039385,-0.164185,0.063679,-0.025712,0.997155
-0.111262,0.039385,-0.194954,0.063191,-0.025224,0.997643
-0.111262,0.008615,-0.194954,0.063435,-0.025224,0.997643
-0.080492,0.008615,-0.194954,0.063923,-0.025224,0.99862
-0.080492,0.008615,-0.164185,0.063923,-0.025224,0.998864
-0.080492,0.008615,-0.164185,0.063435,-0.025468,0.99862
-0.080492,0.039385,-0.164185,0.063435,-0.025468,0.99862
-0.080492,0.039385,-0.164185,0.063191,-0.02498,0.998131
-0.111262,0.039385,-0.164185,0.063191,-0.024736,0.997155
-0.111262,0.039385,-0.194954,0.063679,-0.024736,0.996422
-0.111262,0.008615,-0.164185,0.063923,-0.024736,0.996422
-0.111262,0.008615,-0.164185,0.064655,-0.024736,0.997643
-0.111262,0.008615,-0.194954,0.064655,-0.02498,0.997399
-0.111262,0.008615,-0.194954,0.064167,-0.025224,0.997643
-0.111262,0.008615,-0.194954,0.063923,-0.025712,0.997155
-0.111262,0.008615,-0.194954,0.064411,-0.025712,0.996178
-0.111262,-0.022154,-0.194954,0.064655,-0.025956,0.996178
-0.111262,-0.022154,-0.164185,0.064411,-0.0262,0.996911
-0.142031,-0.022154,-0.164185,0.064411,-0.026445,0.997155
-0.142031,-0.022154,-0.164185,0.0649,-0.0262,0.997155
-0.142031,-0.022154,-0.164185,0.064655,-0.0262,0.997399
-0.142031,-0.022154,-0.164185,0.064411,-0.0262,0.996666
-0.142031,-0.022154,-0.194954,0.063679,-0.0262,0.996911
-0.111262,-0.022154,-0.194954,0.063435,-0.025956,0.996911
-0.111262,-0.022154,-0.194954,0.064411,-0.025712,0.997399
-0.111262,-0.022154,-0.194954,0.064411,-0.025712,0.998131
-0.142031,0.008615,-0.194954,0.064655,-0.025468,0.998375
-0.142031,0.039385,-0.164185,0.064655,-0.025468,0.999596
-0.142031,0.039385,-0.164185,0.064411,-0.0262,0.998864
-0.142031,0.039385,-0.164185,0.064655,-0.026445,0.998375
-0.142031,0.039385,-0.164185,0.064167,-0.0262,0.99862
-0.1728,0.039385,-0.164185,0.064167,-0.0262,0.999352
-0.1728,0.039385,-0.164185,0.064655,-0.025956,0.999352
-0.1728,0.008615,-0.194954,0.064655,-0.025712,0.999352
-0.1728,0.008615,-0.194954,0.064167,-0.025712,0.99984
-0.1728,0.008615,-0.194954,0.064167,-0.025224,0.999352
-0.1728,0.008615,-0.194954,0.063923,-0.025224,0.998864
-0.1728,0.039385,-0.194954,0.063923,-0.024736,0.99862
-0.1728,0.008615,-0.194954,0.063435,-0.024736,0.999352
-0.1728,0.008615,-0.164185,0.063435,-0.02498,0.999108
-0.142031,0.008615,-0.194954,0.063435,-0.025224,0.999108
-0.142031,0.008615,-0.164185,0.063191,-0.024736,0.999352
-0.142031,-0.022154,-0.194954,0.063191,-0.025224,0.999596
-0.142031,-0.022154,-0.194954,0.062946,-0.025956,0.99984
-0.142031,-0.052923,-0.194954,0.062946,-0.025956,0.999596
-0.111262,-0.052923,-0.194954,0.062946,-0.025468,0.999596
-0.142031,-0.052923,-0.194954,0.063435,-0.025224,0.99984
-0.142031,-0.052923,-0.194954,0.063435,-0.025224,0.99984
-0.142031,-0.052923,-0.194954,0.063191,-0.024736,1.000084
-0.142031,-0.052923,-0.194954,0.063679,-0.024491,1.001305
-0.111262,-0.052923,-0.194954,0.063923,-0.024491,1.001549
-0.142031,-0.052923,-0.194954,0.063923,-0.024736,1.001549
-0.142031,-0.052923,-0.194954,0.063191,-0.024736,1.001061
-0.142031,-0.052923,-0.194954,0.063191,-0.025224,1.001305
-0.142031,-0.052923,-0.194954,0.063435,-0.025468,1.000817
-0.142031,-0.052923,-0.194954,0.063191,-0.025468,1.000573
-0.142031,-0.083692,-0.194954,0.062458,-0.025224,0.99984
-0.142031,-0.083692,-0.164185,0.062946,-0.02498,0.998864
-0.142031,-0.083692,-0.164185,0.063435,-0.025224,0.99862
-0.142031,-0.052923,-0.194954,0.063435,-0.025956,0.997887
-0.142031,-0.052923,-0.164185,0.063435,-0.0262,0.997887
-0.142031,-0.052923,-0.194954,0.063923,-0.026445,0.997643
-0.142031,-0.052923,-0.194954,0.063679,-0.026689,0.997643
-0.142031,-0.022154,-0.164185,0.063679,-0.026689,0.997155
-0.142031,-0.022154,-0.164185,0.063435,-0.026445,0.997399
-0.142031,-0.052923,-0.194954,0.063679,-0.0262,0.996666
-0.111262,-0.052923,-0.164185,0.063435,-0.026445,0.996666
-0.111262,-0.022154,-0.164185,0.063191,-0.027177,0.997643
-0.111262,-0.022154,-0.164185,0.062946,-0.026933,0.997887
-0.080492,-0.022154,-0.164185,0.062946,-0.026689,0.99862
-0.111262,-0.022154,-0.164185,0.062702,-0.026933,0.999108
-0.111262,0.008615,-0.164185,0.062702,-0.026689,0.999352
-0.111262,0.008615,-0.164185,0.062702,-0.026689,0.999596
-0.080492,0.008615,-0.164185,0.062214,-0.026445,0.999108
-0.080492,0.008615,-0.164185,0.062214,-0.025956,0.999352
-0.049723,0.008615,-0.164185,0.062458,-0.025712,0.999108
-0.080492,0.008615,-0.164185,0.063191,-0.025712,0.999108
-0.049723,0.008615,-0.133415,0.063679,-0.025712,0.999108
-0.049723,0.008615,-0.133415,0.063679,-0.025956,0.998864
-0.049723,-0.022154,-0.164185,0.063923,-0.0262,0.998864
-0.080492,-0.022154,-0.164185,0.064167,-0.0262,0.998375
-0.080492,0.008615,-0.164185,0.064411,-0.0262,0.997643
-0.111262,0.008615,-0.164185,0.064411,-0.026445,0.998131
-0.111262,-0.022154,-0.164185,0.064167,-0.0262,0.997643
-0.111262,0.008615,-0.164185,0.063923,-0.0262,0.997399
-0.111262,-0.022154,-0.164185,0.063923,-0.026445,0.997643
-0.080492,-0.022154,-0.164185,0.063923,-0.025224,0.997887
-0.080492,-0.052923,-0.164185,0.063679,-0.024736,0.998131
-0.111262,-0.052923,-0.164185,0.063435,-0.02498,0.997643
-0.111262,-0.022154,-0.164185,0.063435,-0.025468,0.997887
-0.111262,-0.052923,-0.164185,0.063191,-0.025712,0.997643
-0.111262,-0.052923,-0.164185,0.063435,-0.025956,0.997399
-0.142031,-0.052923,-0.164185,0.063191,-0.025712,0.998131
-0.1728,-0.052923,-0.133415,0.063923,-0.025956,0.997643
-0.1728,-0.052923,-0.133415,0.063679,-0.0262,0.997887
-0.1728,-0.052923,-0.133415,0.063679,-0.025956,0.997887
-0.1728,-0.022154,-0.133415,0.063923,-0.025712,0.99862
-0.1728,-0.022154,-0.164185,0.064411,-0.025468,0.998131
-0.142031,-0.022154,-0.164185,0.064655,-0.025224,0.997155
-0.142031,-0.052923,-0.164185,0.063923,-0.02498,0.997155
-0.142031,-0.052923,-0.133415,0.063923,-0.025224,0.997155
-0.142031,-0.052923,-0.164185,0.063679,-0.02498,0.998131
-0.142031,-0.052923,-0.164185,0.063435,-0.02498,0.998375
-0.142031,-0.052923,-0.164185,0.063191,-0.02498,0.99862
-0.142031,-0.052923,-0.164185,0.063435,-0.025468,0.997887
-0.142031,-0.022154,-0.164185,0.063435,-0.025468,0.997887
-0.111262,-0.022154,-0.164185,0.063191,-0.02498,0.997399
-0.111262,-0.022154,-0.164185,0.063191,-0.02498,0.997887
-0.080492,-0.022154,-0.164185,0.063435,-0.024491,0.998375
-0.111262,-0.022154,-0.164185,0.063435,-0.024736,0.998375
-0.111262,-0.022154,-0.164185,0.063191,-0.024736,0.99862
-0.111262,-0.022154,-0.164185,0.063679,-0.025224,0.99862
-0.111262,0.008615,-0.194954,0.063435,-0.02498,0.999108
-0.142031,0.008615,-0.164185,0.064167,-0.024736,0.999352
-0.142031,-0.022154,-0.164185,0.063923,-0.024736,0.99984
-0.142031,0.008615,-0.164185,0.063923,-0.024736,1.000817
-0.142031,0.008615,-0.194954,0.064167,-0.024736,1.001061
-0.142031,0.039385,-0.194954,0.064411,-0.024491,1.000573
-0.142031,0.008615,-0.194954,0.063923,-0.024491,1.000573
-0.142031,0.008615,-0.194954,0.063679,-0.024003,1.000817
-0.142031,0.008615,-0.164185,0.064167,-0.024491,1.000817
-0.142031,0.008615,-0.164185,0.063923,-0.024247,1.001549
-0.142031,0.039385,-0.164185,0.063923,-0.024247,1.001549
-0.142031,0.008615,-0.164185,0.063923,-0.024003,1.000329
-0.142031,0.008615,-0.164185,0.064167,-0.023759,0.999596
-0.111262,0.008615,-0.164185,0.064655,-0.024003,0.998864
-0.111262,0.008615,-0.164185,0.065632,-0.023759,0.99862
-0.111262,0.008615,-0.194954,0.065144,-0.023759,0.999108
-0.142031,-0.022154,-0.194954,0.065388,-0.023759,0.99862
-0.111262,-0.022154,-0.194954,0.065388,-0.023759,0.998375
-0.142031,0.008615,-0.164185,0.0649,-0.023759,0.998131
-0.142031,0.008615,-0.194954,0.065144,-0.024003,0.997887
-0.142031,0.008615,-0.194954,0.0649,-0.024247,0.99862
-0.142031,0.008615,-0.194954,0.065144,-0.024247,0.997643
-0.142031,0.039385,-0.194954,0.064655,-0.024491,0.997399
-0.142031,0.008615,-0.194954,0.064655,-0.024247,0.996666
-0.142031,0.008615,-0.194954,0.064411,-0.024491,0.996422
-0.142031,0.008615,-0.194954,0.064167,-0.024736,0.996422
-0.142031,0.008615,-0.194954,0.063679,-0.02498,0.996178
-0.142031,0.008615,-0.194954,0.063679,-0.024491,0.997399
-0.142031,0.008615,-0.194954,0.064167,-0.024247,0.998375
-0.142031,0.008615,-0.194954,0.064411,-0.024736,0.99862
-0.142031,0.008615,-0.194954,0.064167,-0.02498,0.99862
-0.142031,-0.022154,-0.164185,0.063679,-0.024736,0.998864
-0.142031,0.008615,-0.164185,0.063435,-0.02498,0.999352
-0.142031,0.008615,-0.164185,0.062946,-0.02498,0.998864
-0.1728,0.008615,-0.164185,0.062946,-0.025224,0.998131
-0.142031,0.008615,-0.164185,0.062702,-0.025224,0.997887
-0.142031,0.008615,-0.194954,0.062458,-0.025224,0.998375
-0.1728,0.008615,-0.164185,0.062458,-0.025712,0.99862
-0.1728,-0.022154,-0.164185,0.062214,-0.025956,0.998131
-0.142031,-0.022154,-0.164185,0.062458,-0.026445,0.997643
-0.142031,-0.022154,-0.164185,0.062214,-0.025956,0.996911
-0.111262,-0.022154,-0.164185,0.062214,-0.025956,0.997399
-0.080492,-0.022154,-0.164185,0.062946,-0.025712,0.998131
-0.080492,-0.052923,-0.164185,0.062946,-0.025712,0.99862
-0.080492,-0.022154,-0.164185,0.063191,-0.025712,0.998864
-0.080492,-0.052923,-0.164185,0.063191,-0.025712,0.998131
-0.111262,-0.022154,-0.164185,0.063191,-0.025468,0.997887
-0.111262,-0.022154,-0.164185,0.062946,-0.026445,0.997399
-0.111262,-0.022154,-0.164185,0.062946,-0.026445,0.997887
-0.111262,-0.022154,-0.164185,0.062946,-0.025956,0.997643
-0.142031,-0.022154,-0.164185,0.062702,-0.0262,0.997887
-0.111262,-0.022154,-0.164185,0.063191,-0.026445,0.998864
-0.142031,-0.022154,-0.164185,0.063191,-0.025956,0.999108
-0.142031,-0.022154,-0.164185,0.062458,-0.025468,0.998131
-0.142031,-0.022154,-0.164185,0.062702,-0.025224,0.997643
-0.142031,-0.022154,-0.194954,0.063435,-0.025224,0.997643
-0.142031,0.008615,-0.194954,0.062946,-0.025224,0.997887
-0.142031,0.008615,-0.194954,0.062946,-0.025224,0.997643
-0.1728,0.008615,-0.194954,0.063435,-0.025224,0.998131
-0.1728,0.008615,-0.194954,0.062702,-0.025468,0.997887
-0.142031,-0.022154,-0.194954,0.062214,-0.025712,0.997887
-0.142031,-0.022154,-0.194954,0.062214,-0.025712,0.998131
-0.142031,0.008615,-0.194954,0.062946,-0.025712,0.998375
-0.142031,0.008615,-0.194954,0.062702,-0.025468,0.998375
-0.142031,0.008615,-0.194954,0.062702,-0.025468,0.998131
-0.142031,0.008615,-0.194954,0.062702,-0.025468,0.997643
-0.111262,0.008615,-0.194954,0.062214,-0.025224,0.997399
-0.111262,-0.022154,-0.194954,0.062214,-0.025224,0.997887
-0.111262,-0.022154,-0.164185,0.061726,-0.025468,0.997887
-0.111262,-0.022154,-0.194954,0.061726,-0.025712,0.997887
-0.111262,-0.052923,-0.194954,0.062214,-0.025712,0.998375
-0.111262,-0.052923,-0.194954,0.062946,-0.025956,0.99862
-0.111262,-0.052923,-0.194954,0.062946,-0.0262,0.998864
-0.111262,-0.052923,-0.194954,0.063435,-0.0262,0.999108
-0.111262,-0.022154,-0.194954,0.063435,-0.026689,0.998864
-0.111262,-0.052923,-0.194954,0.062946,-0.025956,0.998131
-0.111262,-0.052923,-0.194954,0.062458,-0.025468,0.998131
-0.111262,-0.052923,-0.164185,0.062214,-0.025224,0.998375
-0.111262,-0.083692,-0.164185,0.062702,-0.025224,0.998131
-0.111262,-0.083692,-0.164185,0.062946,-0.025224,0.998864
-0.111262,-0.083692,-0.164185,0.062946,-0.025468,0.999352
-0.111262,-0.052923,-0.164185,0.062946,-0.02498,0.999352
-0.080492,-0.052923,-0.164185,0.063191,-0.02498,0.99984
-0.080492,-0.052923,-0.164185,0.063191,-0.024736,0.999596
-0.080492,-0.022154,-0.164185,0.063435,-0.024003,0.999596
-0.080492,-0.052923,-0.164185,0.063679,-0.023515,0.999596
-0.080492,-0.052923,-0.194954,0.063679,-0.023759,0.999352
-0.080492,-0.052923,-0.194954,0.062702,-0.024003,0.999352
-0.049723,-0.052923,-0.164185,0.063191,-0.024003,0.999108
-0.080492,-0.052923,-0.164185,0.063435,-0.023515,0.998864
-0.111262,-0.052923,-0.164185,0.063679,-0.023759,0.999596
-0.111262,-0.052923,-0.194954,0.063191,-0.023515,1.000084
-0.111262,-0.052923,-0.164185,0.063435,-0.023759,1.000329
-0.080492,-0.022154,-0.164185,0.063435,-0.024247,1.000573
-0.080492,-0.022154,-0.164185,0.063923,-0.024247,0.99984
-0.111262,-0.022154,-0.164185,0.063679,-0.023515,0.999596
-0.080492,-0.022154,-0.164185,0.063679,-0.023515,0.999596
-0.080492,-0.022154,-0.164185,0.063191,-0.023759,0.999108
-0.111262,-0.022154,-0.164185,0.062946,-0.023515,0.998864
-0.111262,0.008615,-0.164185,0.062946,-0.023759,0.999352
-0.142031,0.008615,-0.164185,0.063435,-0.023759,0.998864
-0.142031,0.008615,-0.194954,0.063679,-0.024247,0.99862
-0.142031,0.008615,-0.164185,0.063435,-0.024736,0.998131
-0.142031,0.008615,-0.164185,0.063679,-0.02498,0.998375
-0.142031,0.008615,-0.194954,0.063435,-0.025468,0.99862
-0.142031,0.008615,-0.194954,0.063191,-0.02498,0.99862
-0.142031,0.008615,-0.194954,0.063191,-0.02498,0.998375
-0.142031,0.008615,-0.194954,0.062702,-0.02498,0.997643
-0.1728,0.008615,-0.194954,0.062214,-0.025468,0.997399
-0.203569,0.008615,-0.164185,0.062702,-0.025712,0.996911
-0.1728,-0.022154,-0.164185,0.063191,-0.025468,0.996666
-0.1728,-0.022154,-0.164185,0.063679,-0.025224,0.997643
-0.142031,-0.022154,-0.164185,0.063923,-0.025712,0.997643
-0.142031,-0.022154,-0.164185,0.063923,-0.025468,0.997887
-0.142031,-0.022154,-0.164185,0.064167,-0.025224,0.998131
-0.1728,-0.052923,-0.164185,0.064167,-0.024736,0.998131
-0.142031,-0.052923,-0.164185,0.064167,-0.02498,0.998375
-0.142031,-0.052923,-0.164185,0.064167,-0.025712,0.998131
-0.142031,-0.052923,-0.164185,0.063191,-0.025712,0.997643
-0.142031,-0.052923,-0.133415,0.062946,-0.025468,0.997887
-0.142031,-0.052923,-0.133415,0.062946,-0.025712,0.998131
-0.111262,-0.052923,-0.133415,0.062946,-0.025712,0.99862
-0.080492,-0.052923,-0.133415,0.063191,-0.025712,0.998864
-0.111262,-0.052923,-0.102646,0.063191,-0.0262,0.998864
-0.111262,-0.052923,-0.133415,0.062946,-0.025956,0.99862
-0.111262,-0.052923,-0.164185,0.062458,-0.0262,0.998131
-0.111262,-0.083692,-0.164185,0.062214,-0.0262,0.998131
-0.111262,-0.052923,-0.164185,0.062458,-0.025956,0.998375
-0.111262,-0.052923,-0.164185,0.062214,-0.025712,0.998131
-0.111262,-0.052923,-0.164185,0.06197,-0.025956,0.997887
-0.111262,-0.052923,-0.164185,0.062458,-0.025956,0.998131
-0.111262,-0.052923,-0.164185,0.062702,-0.025956,0.99862
-0.111262,-0.052923,-0.164185,0.063191,-0.025956,0.99862
-0.111262,-0.022154,-0.164185,0.062946,-0.025956,0.997887
-0.111262,0.008615,-0.164185,0.062702,-0.025956,0.997887
-0.111262,0.008615,-0.164185,0.062702,-0.025956,0.997887
-0.111262,0.008615,-0.194954,0.062702,-0.025712,0.998375
-0.111262,0.008615,-0.164185,0.062458,-0.025956,0.998864
-0.111262,0.008615,-0.164185,0.063191,-0.025224,0.999352
-0.111262,0.008615,-0.164185,0.063191,-0.02498,0.999596
-0.142031,0.008615,-0.194954,0.063679,-0.024736,0.999596
-0.142031,0.008615,-0.194954,0.064167,-0.02498,0.998375
-0.142031,-0.022154,-0.164185,0.064411,-0.025712,0.996911
-0.142031,-0.022154,-0.164185,0.064411,-0.0262,0.997155
-0.142031,-0.022154,-0.164185,0.064411,-0.025956,0.997399
-0.142031,-0.022154,-0.164185,0.064167,-0.025468,0.997887
-0.142031,-0.022154,-0.164185,0.063923,-0.024736,0.998131
-0.142031,-0.022154,-0.164185,0.063923,-0.024736,0.997887
-0.142031,-0.022154,-0.164185,0.063679,-0.024247,0.997887
-0.142031,-0.022154,-0.164185,0.063435,-0.024491,0.997399
-0.142031,-0.022154,-0.164185,0.063191,-0.024736,0.997887
-0.142031,-0.022154,-0.164185,0.062946,-0.02498,0.998131
-0.142031,-0.022154,-0.164185,0.062458,-0.02498,0.997887
-0.142031,-0.022154,-0.164185,0.062702,-0.024491,0.997887
-0.142031,-0.052923,-0.164185,0.062946,-0.024491,0.997643
-0.142031,-0.052923,-0.164185,0.062458,-0.024247,0.998131
-0.142031,-0.052923,-0.133415,0.062702,-0.024003,0.998131
-0.111262,-0.052923,-0.164185,0.063435,-0.023515,0.997399
-0.111262,-0.052923,-0.164185,0.063191,-0.024003,0.996422
-0.111262,-0.052923,-0.256492,0.064167,-0.02498,0.996422
-0.111262,-0.052923,-0.318031,0.064411,-0.027421,0.996178
-0.111262,-0.022154,-0.594954,0.062214,-0.026689,0.99569
0.011815,0.039385,-0.841108,0.060993,-0.022294,0.996911
0.073354,0.039385,-0.779569,0.063435,-0.024247,0.998131
-0.049723,-0.083692,-0.564185,0.066364,-0.022782,0.997643
-0.1728,-0.176,-0.164185,0.066609,-0.018876,0.996178
-0.295877,-0.237538,0.4512,0.065144,-0.021806,0.992516
-0.357415,-0.145231,0.8512,0.065388,-0.020829,0.991539
-0.357415,-0.145231,1.066585,0.066853,-0.02498,0.994225
-0.418954,-0.145231,1.128123,0.066364,-0.026689,0.997399
-0.388185,-0.022154,0.820431,0.0649,-0.027665,0.99984
-0.049723,0.039385,0.297354,0.065388,-0.029618,1.001549
0.196431,0.100923,-0.194954,0.062946,-0.02913,1.002282
0.411815,0.162462,-0.625723,0.061237,-0.028398,1.002038
0.596431,0.162462,-0.933415,0.06197,-0.0262,1.000573
0.504123,0.162462,-0.994954,0.061482,-0.026933,0.997155
0.257969,0.162462,-1.025723,0.061237,-0.024736,0.99276
0.011815,0.162462,-1.1488,0.062702,-0.025956,0.991051
-0.357415,0.162462,-1.241108,0.063191,-0.027909,0.98983
-0.603569,0.224,-1.241108,0.061237,-0.021806,0.992272
-0.665108,0.254769,-1.056492,0.060505,-0.031083,0.994713
-0.818954,0.100923,-0.810338,0.063191,-0.02913,0.99862
-0.911262,-0.022154,-0.379569,0.061237,-0.031816,1.002282
-0.603569,-0.114462,-0.010338,0.060749,-0.028154,1.003502
-0.234338,-0.114462,0.328123,0.061237,-0.028398,1.004967
0.073354,-0.206769,0.789662,0.064411,-0.031083,1.006432
0.104123,-0.391385,1.005046,0.064411,-0.030351,1.005455
0.288738,-0.452923,1.128123,0.063191,-0.0262,1.003747
0.350277,-0.452923,1.2512,0.065876,-0.025956,1.000329
0.350277,-0.422154,1.281969,0.066853,-0.02498,0.998375
0.381046,-0.422154,1.128123,0.064655,-0.034501,0.99569
0.196431,-0.329846,0.881969,0.065144,-0.029374,0.993248
0.165662,-0.268308,0.789662,0.062458,-0.033036,0.993981
0.165662,-0.114462,0.512738,0.066609,-0.031327,0.99569
0.257969,-0.083692,0.174277,0.065388,-0.038652,0.997643
0.073354,-0.022154,-0.041108,0.066609,-0.037919,0.99569
0.104123,0.039385,-0.287262,0.064411,-0.032304,0.996422
0.288738,0.193231,-0.564185,0.064411,-0.036454,0.996178
0.196431,0.254769,-0.841108,0.065632,-0.035234,0.996666
-0.049723,0.285538,-0.902646,0.061726,-0.03621,0.995446
-0.111262,0.285538,-1.118031,0.06197,-0.028154,0.993493
-0.080492,0.316308,-1.210338,0.060993,-0.031816,0.995934
-0.265108,0.316308,-1.241108,0.059773,-0.028398,0.994469
-0.295877,0.316308,-1.241108,0.061237,-0.026689,0.99862
-0.326646,0.193231,-1.241108,0.063191,-0.024491,0.999596
-0.418954,0.070154,-1.087262,0.060505,-0.024736,1.001061
-0.480492,0.008615,-0.964185,0.061237,-0.021318,1.002526
-0.388185,-0.114462,-0.779569,0.062702,-0.027177,1.000329
-0.480492,-0.237538,-0.533415,0.064167,-0.023759,1.001305
-0.388185,-0.299077,-0.225723,0.060993,-0.025712,0.998864
-0.295877,-0.329846,-0.041108,0.062214,-0.026933,0.997643
-0.326646,-0.329846,0.235815,0.064411,-0.032792,0.99569
-0.418954,-0.422154,0.4512,0.063679,-0.028642,0.993493
-0.265108,-0.391385,0.574277,0.062702,-0.032304,0.994713
-0.234338,-0.268308,0.635815,0.063435,-0.034013,0.994469
-0.234338,-0.237538,0.728123,0.065388,-0.034013,0.995934
-0.111262,-0.206769,0.635815,0.067341,-0.032792,0.99862
-0.018954,-0.176,0.512738,0.064655,-0.033525,0.998131
0.011815,-0.052923,0.420431,0.063923,-0.033036,0.999108
0.104123,0.070154,0.266585,0.066364,-0.032548,0.997887
0.288738,0.131692,-0.010338,0.066609,-0.03206,0.998864
0.288738,0.162462,-0.194954,0.0649,-0.031571,0.998131
0.319508,0.254769,-0.379569,0.063679,-0.027909,0.999596
0.381046,0.377846,-0.594954,0.063923,-0.027177,0.99984
0.381046,0.285538,-0.718031,0.064655,-0.027177,0.999352
0.257969,0.285538,-0.779569,0.062214,-0.024247,0.999352
0.257969,0.285538,-0.810338,0.060749,-0.022538,0.999352
0.2272,0.285538,-0.779569,0.062702,-0.022538,0.99984
0.073354,0.162462,-0.718031,0.061482,-0.021318,0.999596
-0.049723,0.039385,-0.533415,0.05904,-0.021318,0.998864
-0.203569,0.039385,-0.441108,0.058552,-0.01912,0.99984
-0.326646,-0.052923,-0.225723,0.060993,-0.021806,0.998375
-0.511262,-0.145231,-0.071877,0.060993,-0.020097,0.998375
-0.603569,-0.237538,0.081969,0.060017,-0.023759,0.996422
-0.695877,-0.299077,0.174277,0.061482,-0.024736,0.996178
-0.726646,-0.268308,0.266585,0.06197,-0.024491,0.996666
-0.603569,-0.360615,0.328123,0.063679,-0.029374,0.997155
-0.542031,-0.329846,0.328123,0.063191,-0.029618,0.998864
-0.388185,-0.329846,0.328123,0.06197,-0.032792,0.999596
-0.203569,-0.299077,0.266585,0.064655,-0.030839,0.99862
0.042585,-0.237538,0.143508,0.064167,-0.03206,0.999596
0.196431,-0.237538,0.0512,0.0649,-0.033036,0.996911
0.2272,-0.114462,-0.071877,0.062458,-0.030351,0.996666
0.319508,-0.052923,-0.194954,0.063679,-0.031083,0.994957
0.288738,-0.022154,-0.318031,0.065144,-0.029618,0.993981
0.104123,0.008615,-0.379569,0.062946,-0.029618,0.99276
0.042585,0.039385,-0.471877,0.062946,-0.026933,0.991051
